participant_id,condition,condition_order,condition_label,hedging,modality,hedging_label,modality_label,session_status,n_trials_completed,n_trials_in_logs,trust_score_mean,nasa_tlx_raw_mean,manipulation_uncertainty,manipulation_certainty,posttask_perceived_uncertainty,posttask_perceived_certainty,posttask_perceived_reliability,posttask_verification_usefulness,posttask_decision_confidence,verify_rate,accept_rate,reject_rate,final_accuracy_rate,overreliance_rate,underreliance_rate,mean_decision_time_sec,median_decision_time_sec,verify_rate_correct_answers,accept_rate_correct_answers,accuracy_rate_correct_answers,verify_rate_incorrect_answers,accept_rate_incorrect_answers,accuracy_rate_incorrect_answers,source_file,informed_consent_given,participant_blinded_to_condition_meaning,interview_consent,practice_trials_completed,main_trials_planned,break_count,session_start,session_end,consent_timestamp,assignment_mode,assignment_strategy,T1,T2,T3,T4,T5,T6,T7,T8,T9,T10,T11,T12,N1,N2,N3,N4,N5,N6,U01,U02,U03,U04,U05,U06,U07,U08,U09,U10,U11,U12,U13,U14,U15,U16,U17,U18,U19,U20,U21,U22,U23,U24,U25,U26,PT1,PT2,PT3,PT4,PT5,PT6,PT7,ueq_attractiveness,ueq_perspicuity,ueq_novelty,ueq_stimulation,ueq_dependability,ueq_efficiency,ueq_pragmatic_quality,ueq_hedonic_quality,posttask_modality_influence,posttask_behavioural_adaptation,mean_evidence_dwell_time_sec
P_1778665385732_378,C3,3,No hedge + Speech,0,1,No hedge,Speech,completed,30,30,3.9166666666666665,3.8333333333333335,4.0,5.0,4.0,3.0,5.0,6.0,6.0,0.5666666666666667,0.5666666666666667,0.43333333333333335,0.8666666666666667,0.0,0.13333333333333333,11.402233333333333,9.6095,0.5238095238095238,0.8095238095238095,0.8095238095238095,0.6666666666666666,0.0,1.0,P_1778665385732_378_1778666256119.json,1,1,accepted,2,30,2,1778665385736,1778666255235,1778666255235,balanced,quota_balanced_round_robin,2.0,3.0,2.0,2.0,3.0,3.0,1.0,2.0,3.0,3.0,3.0,4.0,5.0,2.0,1.0,1.0,4.0,4.0,5.0,5.0,4.0,5.0,5.0,4.0,5.0,5.0,5.0,5.0,4.0,3.0,5.0,4.0,4.0,5.0,4.0,3.0,3.0,5.0,2.0,5.0,4.0,2.0,2.0,3.0,4.0,3.0,5.0,6.0,6.0,6.0,5.0,1.1666666666666667,0.75,-0.5,0.25,0.5,0.25,0.5,-0.125,6.0,5.0,5.2531
P_1778665895081_9117,C1,1,No hedge + Text,0,0,No hedge,Text,completed,30,30,5.166666666666667,2.5,2.0,6.0,5.0,5.0,6.0,5.0,5.0,0.16666666666666666,0.7333333333333333,0.26666666666666666,0.9,0.06666666666666667,0.03333333333333333,4.1258333333333335,2.857,0.09523809523809523,0.9523809523809523,0.9523809523809523,0.3333333333333333,0.2222222222222222,0.7777777777777778,P_1778665895081_9117_1778666377140.json,1,1,accepted,2,30,2,1778665895082,1778666376715,1778666376714,balanced,quota_balanced_round_robin,2.0,2.0,4.0,2.0,1.0,5.0,4.0,5.0,3.0,5.0,5.0,6.0,4.0,2.0,2.0,6.0,3.0,2.0,4.0,5.0,5.0,2.0,3.0,5.0,5.0,4.0,5.0,5.0,5.0,2.0,5.0,6.0,2.0,6.0,2.0,3.0,3.0,5.0,2.0,4.0,2.0,3.0,2.0,5.0,5.0,5.0,6.0,5.0,5.0,4.0,4.0,1.5,1.5,-0.75,1.0,1.0,0.5,1.0,0.125,4.0,4.0,0.8782666666666666
P_1778667060449_6321,C1,1,No hedge + Text,0,0,No hedge,Text,completed,30,30,3.5,4.0,3.0,4.0,1.0,4.0,2.0,6.0,4.0,0.16666666666666666,0.7333333333333333,0.26666666666666666,0.9666666666666667,0.03333333333333333,0.0,7.063166666666667,4.198499999999999,0.047619047619047616,1.0,1.0,0.4444444444444444,0.1111111111111111,0.8888888888888888,P_1778667060449_6321_1778667916125.json,1,1,accepted,2,30,2,1778667060451,1778667916068,1778667916068,balanced,quota_balanced_round_robin,3.0,3.0,4.0,4.0,1.0,2.0,1.0,1.0,3.0,3.0,3.0,4.0,4.0,3.0,2.0,4.0,5.0,6.0,2.0,3.0,4.0,5.0,4.0,2.0,3.0,5.0,2.0,6.0,3.0,4.0,4.0,3.0,2.0,2.0,4.0,4.0,2.0,3.0,3.0,3.0,3.0,5.0,7.0,2.0,1.0,4.0,2.0,6.0,4.0,1.0,2.0,-1.5,-0.25,-1.5,-0.75,0.5,0.25,0.16666666666666666,-1.125,1.0,2.0,1.3847666666666667
P_1778667621646_4174,C1,1,No hedge + Text,0,0,No hedge,Text,completed,30,30,3.5833333333333335,1.8333333333333333,2.0,6.0,3.0,6.0,6.0,7.0,6.0,0.8666666666666667,0.6333333333333333,0.36666666666666664,0.8,0.06666666666666667,0.13333333333333333,23.08353333333333,15.184999999999999,0.8095238095238095,0.8095238095238095,0.8095238095238095,1.0,0.2222222222222222,0.7777777777777778,P_1778667621646_4174_1778669407944.json,1,1,accepted,2,30,2,1778667621647,1778669406663,1778669406663,balanced,quota_balanced_round_robin,4.0,2.0,2.0,6.0,4.0,2.0,3.0,2.0,5.0,3.0,2.0,4.0,2.0,1.0,1.0,3.0,1.0,1.0,6.0,4.0,2.0,2.0,4.0,5.0,6.0,5.0,2.0,3.0,5.0,3.0,6.0,4.0,5.0,5.0,3.0,3.0,3.0,6.0,3.0,5.0,1.0,3.0,2.0,6.0,3.0,6.0,6.0,7.0,6.0,6.0,5.0,1.1666666666666667,1.25,1.5,1.0,1.0,2.0,1.4166666666666667,1.25,6.0,5.0,9.8777
P_1778681814697_1863,C2,2,Hedge + Text,1,0,Hedge,Text,completed,30,30,3.5,3.1666666666666665,3.0,6.0,2.0,4.0,4.0,5.0,3.0,0.5,0.7333333333333333,0.26666666666666666,0.7666666666666667,0.13333333333333333,0.1,9.881233333333334,6.072,0.47619047619047616,0.8571428571428571,0.8571428571428571,0.5555555555555556,0.4444444444444444,0.5555555555555556,P_1778681814697_1863_1778682615416.json,1,1,accepted,2,30,2,1778681814701,1778682613684,1778682613684,balanced,quota_balanced_round_robin,5.0,3.0,5.0,3.0,3.0,3.0,3.0,3.0,3.0,3.0,3.0,3.0,4.0,1.0,3.0,3.0,3.0,3.0,3.0,4.0,5.0,4.0,4.0,4.0,3.0,3.0,3.0,5.0,4.0,3.0,5.0,4.0,4.0,3.0,4.0,3.0,3.0,4.0,5.0,5.0,3.0,3.0,3.0,4.0,2.0,4.0,4.0,5.0,3.0,2.0,2.0,0.16666666666666666,0.0,-0.5,0.0,0.0,0.75,0.25,-0.25,2.0,2.0,2.759333333333333
P_1778683691383_7967,C3,3,No hedge + Speech,0,1,No hedge,Speech,completed,30,30,5.166666666666667,1.3333333333333333,2.0,7.0,1.0,7.0,6.0,5.0,7.0,0.3333333333333333,0.7,0.3,0.9333333333333333,0.03333333333333333,0.03333333333333333,8.5049,6.3165,0.2857142857142857,0.9523809523809523,0.9523809523809523,0.4444444444444444,0.1111111111111111,0.8888888888888888,P_1778683691383_7967_1778684671638.json,1,1,accepted,2,30,2,1778683691388,1778684670304,1778684670304,balanced,quota_balanced_round_robin,2.0,1.0,1.0,3.0,2.0,4.0,3.0,2.0,5.0,6.0,5.0,6.0,1.0,1.0,1.0,6.0,2.0,1.0,6.0,6.0,3.0,1.0,3.0,5.0,6.0,2.0,4.0,2.0,6.0,3.0,6.0,4.0,5.0,6.0,6.0,3.0,5.0,5.0,1.0,5.0,5.0,6.0,4.0,5.0,1.0,7.0,6.0,5.0,7.0,1.0,1.0,0.5,2.5,1.25,1.25,-0.75,0.25,0.6666666666666666,1.25,1.0,1.0,2.8015666666666665
P_1778691346089_41,C2,2,Hedge + Text,1,0,Hedge,Text,completed,30,30,3.5,3.5,5.0,3.0,5.0,5.0,5.0,6.0,5.0,0.43333333333333335,0.6333333333333333,0.36666666666666664,0.9333333333333333,0.0,0.06666666666666667,25.309433333333335,20.275,0.3333333333333333,0.9047619047619048,0.9047619047619048,0.6666666666666666,0.0,1.0,P_1778691346089_41_1778693288709.json,1,1,accepted,2,30,2,1778691346094,1778693288313,1778693288312,balanced,quota_balanced_round_robin,4.0,3.0,3.0,5.0,4.0,4.0,2.0,3.0,3.0,3.0,3.0,3.0,4.0,3.0,4.0,5.0,4.0,3.0,7.0,6.0,6.0,6.0,7.0,6.0,7.0,6.0,6.0,6.0,6.0,7.0,6.0,6.0,5.0,6.0,4.0,2.0,3.0,6.0,5.0,5.0,2.0,2.0,1.0,6.0,5.0,5.0,5.0,6.0,5.0,6.0,6.0,1.5,0.25,-0.25,1.0,1.25,0.75,0.75,0.375,6.0,6.0,7.8645000000000005
P_1778701974935_6024,C3,3,No hedge + Speech,0,1,No hedge,Speech,completed,30,30,2.6666666666666665,2.0,1.0,7.0,1.0,7.0,1.0,5.0,7.0,0.23333333333333334,0.7,0.3,1.0,0.0,0.0,8.939266666666667,6.6425,0.14285714285714285,1.0,1.0,0.4444444444444444,0.0,1.0,P_1778701974935_6024_1778702810135.json,1,1,accepted,2,30,2,1778701974936,1778702896299,1778702896299,balanced,quota_balanced_round_robin,4.0,3.0,4.0,3.0,7.0,1.0,1.0,1.0,1.0,1.0,1.0,7.0,2.0,1.0,1.0,2.0,1.0,1.0,5.0,5.0,5.0,1.0,4.0,4.0,5.0,5.0,6.0,4.0,2.0,6.0,7.0,2.0,3.0,5.0,5.0,3.0,3.0,5.0,7.0,2.0,2.0,3.0,2.0,3.0,1.0,7.0,1.0,5.0,7.0,1.0,5.0,0.16666666666666666,1.0,-0.75,0.5,-0.25,-0.25,0.16666666666666666,-0.125,1.0,5.0,1.9977333333333334
P_1778704351757_2789,C4,4,Hedge + Speech,1,1,Hedge,Speech,completed,30,30,2.0,3.3333333333333335,6.0,1.0,6.0,2.0,2.0,5.0,3.0,0.6333333333333333,0.6666666666666666,0.3333333333333333,0.9,0.03333333333333333,0.06666666666666667,15.470133333333333,16.947499999999998,0.47619047619047616,0.9047619047619048,0.9047619047619048,1.0,0.1111111111111111,0.8888888888888888,P_1778704351757_2789_1778769911732.json,1,1,accepted,2,30,2,1778704351760,1778769910444,1778769910444,balanced,quota_balanced_round_robin,5.0,5.0,6.0,6.0,6.0,1.0,1.0,2.0,2.0,2.0,2.0,2.0,5.0,3.0,3.0,5.0,4.0,2.0,3.0,5.0,4.0,3.0,4.0,2.0,4.0,3.0,4.0,4.0,5.0,4.0,4.0,4.0,3.0,4.0,6.0,4.0,3.0,2.0,5.0,5.0,5.0,5.0,4.0,4.0,6.0,2.0,2.0,5.0,3.0,6.0,4.0,-0.3333333333333333,0.25,-0.25,-0.5,-0.25,-0.5,-0.16666666666666666,-0.375,6.0,4.0,6.2562999999999995
P_1778704636938_3191,C4,4,Hedge + Speech,1,1,Hedge,Speech,completed,30,30,2.9166666666666665,2.8333333333333335,3.0,5.0,3.0,6.0,2.0,6.0,5.0,0.3333333333333333,0.6666666666666666,0.3333333333333333,0.9666666666666667,0.0,0.03333333333333333,11.875499999999999,4.0920000000000005,0.38095238095238093,0.9523809523809523,0.9523809523809523,0.2222222222222222,0.0,1.0,P_1778704636938_3191_1778705412206.json,1,1,accepted,2,30,2,1778704636944,1778705411511,1778705411511,balanced,quota_balanced_round_robin,5.0,4.0,6.0,5.0,3.0,3.0,2.0,2.0,2.0,2.0,2.0,5.0,4.0,2.0,2.0,5.0,3.0,3.0,4.0,5.0,4.0,2.0,3.0,4.0,4.0,4.0,3.0,3.0,5.0,3.0,5.0,5.0,4.0,5.0,3.0,4.0,3.0,6.0,1.0,5.0,2.0,3.0,2.0,4.0,3.0,6.0,2.0,6.0,5.0,4.0,2.0,1.0,1.75,0.25,0.25,0.75,1.5,1.3333333333333333,0.25,4.0,2.0,7.855833333333334
P_1778704794189_4572,C4,4,Hedge + Speech,1,1,Hedge,Speech,completed,30,30,4.25,2.3333333333333335,1.0,7.0,1.0,7.0,7.0,7.0,7.0,0.4,0.8,0.2,0.9,0.1,0.0,10.2903,9.8475,0.38095238095238093,1.0,1.0,0.4444444444444444,0.3333333333333333,0.6666666666666666,P_1778704794189_4572_1778705442579.json,1,1,accepted,2,30,2,1778704794192,1778705441831,1778705441831,balanced,quota_balanced_round_robin,1.0,1.0,3.0,3.0,2.0,2.0,2.0,2.0,6.0,3.0,3.0,3.0,1.0,1.0,1.0,1.0,2.0,2.0,3.0,7.0,3.0,2.0,3.0,5.0,7.0,5.0,4.0,4.0,6.0,2.0,6.0,5.0,5.0,5.0,2.0,2.0,4.0,5.0,2.0,6.0,2.0,2.0,2.0,5.0,1.0,7.0,7.0,7.0,7.0,6.0,5.0,1.1666666666666667,2.25,0.75,1.75,1.25,1.25,1.5833333333333333,1.25,6.0,5.0,2.6424000000000003
P_1778705995339_9484,C2,2,Hedge + Text,1,0,Hedge,Text,completed,30,30,3.5833333333333335,3.0,4.0,6.0,4.0,5.0,5.0,5.0,6.0,0.36666666666666664,0.7333333333333333,0.26666666666666666,0.9666666666666667,0.03333333333333333,0.0,14.4881,6.132,0.38095238095238093,1.0,1.0,0.3333333333333333,0.1111111111111111,0.8888888888888888,P_1778705995339_9484_1778707185923.json,1,1,accepted,2,30,2,1778705995344,1778707185214,1778707185213,balanced,quota_balanced_round_robin,4.0,2.0,4.0,5.0,3.0,2.0,2.0,4.0,3.0,3.0,2.0,5.0,2.0,1.0,5.0,2.0,2.0,2.0,5.0,6.0,3.0,3.0,3.0,4.0,6.0,5.0,1.0,2.0,6.0,2.0,6.0,4.0,3.0,5.0,4.0,3.0,3.0,5.0,2.0,6.0,2.0,3.0,2.0,5.0,4.0,5.0,5.0,5.0,6.0,5.0,5.0,1.1666666666666667,1.75,0.75,1.0,1.0,2.0,1.5833333333333333,0.875,5.0,5.0,5.553566666666667
P_1778708328964_5797,C4,4,Hedge + Speech,1,1,Hedge,Speech,completed,30,30,3.25,3.5,2.0,6.0,2.0,6.0,3.0,4.0,6.0,0.0,0.7,0.3,0.9333333333333333,0.03333333333333333,0.03333333333333333,4.366766666666666,2.6685,0.0,0.9523809523809523,0.9523809523809523,0.0,0.1111111111111111,0.8888888888888888,P_1778708328964_5797_1778708983933.json,1,1,accepted,2,30,2,1778708328967,1778708983698,1778708983698,balanced,quota_balanced_round_robin,2.0,2.0,5.0,5.0,2.0,2.0,2.0,2.0,2.0,2.0,2.0,3.0,5.0,1.0,4.0,6.0,6.0,3.0,5.0,7.0,2.0,2.0,2.0,5.0,6.0,3.0,2.0,3.0,5.0,3.0,6.0,5.0,5.0,5.0,3.0,3.0,3.0,5.0,2.0,6.0,1.0,3.0,3.0,5.0,2.0,6.0,3.0,4.0,6.0,2.0,2.0,1.0,2.25,1.25,1.5,0.5,2.0,1.5833333333333333,1.375,2.0,2.0,0.0
P_1778749151091_1515,C4,4,Hedge + Speech,1,1,Hedge,Speech,completed,30,30,4.0,2.0,5.0,3.0,5.0,5.0,3.0,6.0,6.0,0.16666666666666666,0.6666666666666666,0.3333333333333333,0.8333333333333334,0.06666666666666667,0.1,8.727633333333333,8.259,0.19047619047619047,0.8571428571428571,0.8571428571428571,0.1111111111111111,0.2222222222222222,0.7777777777777778,P_1778749151091_1515_1778749712701.json,1,1,accepted,2,30,2,1778749151092,1778749711969,1778749711969,balanced,quota_balanced_round_robin,3.0,3.0,3.0,5.0,3.0,4.0,4.0,2.0,3.0,3.0,3.0,6.0,3.0,1.0,1.0,4.0,2.0,1.0,4.0,6.0,3.0,3.0,3.0,5.0,5.0,4.0,4.0,3.0,4.0,2.0,6.0,5.0,5.0,5.0,4.0,3.0,3.0,5.0,1.0,5.0,1.0,2.0,2.0,6.0,5.0,5.0,3.0,6.0,6.0,3.0,2.0,1.3333333333333333,2.0,1.25,1.0,0.25,1.25,1.1666666666666667,1.125,3.0,2.0,1.1373666666666666
P_1778749876132_2373,C4,4,Hedge + Speech,1,1,Hedge,Speech,completed,30,30,3.8333333333333335,3.5,4.0,3.0,4.0,5.0,2.0,4.0,5.0,0.03333333333333333,0.5333333333333333,0.4666666666666667,0.5666666666666667,0.13333333333333333,0.3,4.0154000000000005,1.9900000000000002,0.047619047619047616,0.5714285714285714,0.5714285714285714,0.0,0.4444444444444444,0.5555555555555556,P_1778749876132_2373_1778750363594.json,1,1,accepted,2,30,2,1778749876136,1778750363093,1778750363093,balanced,quota_balanced_round_robin,3.0,3.0,3.0,4.0,3.0,4.0,3.0,4.0,2.0,3.0,4.0,2.0,3.0,3.0,3.0,3.0,4.0,3.0,3.0,4.0,3.0,3.0,4.0,3.0,3.0,3.0,3.0,4.0,3.0,3.0,2.0,4.0,4.0,3.0,3.0,3.0,3.0,3.0,3.0,3.0,2.0,2.0,3.0,2.0,4.0,5.0,2.0,4.0,5.0,2.0,3.0,0.3333333333333333,0.0,-0.25,-0.25,0.0,0.25,0.08333333333333333,-0.25,2.0,3.0,0.10673333333333333
P_1778776455353_2359,C4,4,Hedge + Speech,1,1,Hedge,Speech,completed,30,30,3.0,3.5,6.0,2.0,6.0,2.0,2.0,6.0,5.0,0.6,0.7333333333333333,0.26666666666666666,0.9666666666666667,0.03333333333333333,0.0,12.027700000000001,9.524000000000001,0.42857142857142855,1.0,1.0,1.0,0.1111111111111111,0.8888888888888888,P_1778776455353_2359_1778777333927.json,1,1,accepted,2,30,2,1778776455358,1778777333455,1778777333455,balanced,quota_balanced_round_robin,5.0,5.0,5.0,5.0,4.0,2.0,3.0,4.0,2.0,2.0,2.0,5.0,5.0,2.0,2.0,2.0,3.0,3.0,1.0,5.0,3.0,3.0,5.0,2.0,2.0,2.0,5.0,3.0,3.0,5.0,3.0,2.0,4.0,2.0,5.0,5.0,4.0,1.0,5.0,2.0,3.0,6.0,3.0,4.0,6.0,2.0,2.0,6.0,5.0,5.0,7.0,-1.5,0.0,0.5,-1.5,-1.0,-1.25,-0.75,-0.5,5.0,7.0,4.9056999999999995
P_1778776826927_5525,C4,4,Hedge + Speech,1,1,Hedge,Speech,completed,30,30,1.9166666666666667,4.0,1.0,5.0,4.0,4.0,3.0,1.0,3.0,0.3333333333333333,0.5333333333333333,0.4666666666666667,0.8333333333333334,0.0,0.16666666666666666,7.640833333333333,3.9645,0.2857142857142857,0.7619047619047619,0.7619047619047619,0.4444444444444444,0.0,1.0,P_1778776826927_5525_1778777387078.json,1,1,accepted,2,30,2,1778776826928,1778777386529,1778777386529,balanced,quota_balanced_round_robin,7.0,6.0,7.0,6.0,6.0,2.0,2.0,2.0,2.0,2.0,2.0,3.0,5.0,1.0,3.0,4.0,5.0,6.0,2.0,3.0,6.0,5.0,4.0,4.0,3.0,3.0,5.0,3.0,3.0,5.0,2.0,2.0,5.0,3.0,6.0,5.0,5.0,3.0,7.0,3.0,3.0,5.0,4.0,5.0,4.0,4.0,3.0,1.0,3.0,1.0,6.0,-1.1666666666666667,-1.75,0.25,-0.5,-1.25,-0.5,-1.1666666666666667,-0.125,1.0,6.0,1.8351666666666666
P_1778779676299_531,C4,4,Hedge + Speech,1,1,Hedge,Speech,completed,30,30,3.0833333333333335,3.8333333333333335,2.0,6.0,2.0,6.0,3.0,6.0,4.0,0.2,0.8,0.2,0.9,0.1,0.0,6.128233333333333,4.1685,0.19047619047619047,1.0,1.0,0.2222222222222222,0.3333333333333333,0.6666666666666666,P_1778779676299_531_1778780287978.json,1,1,accepted,2,30,2,1778779676300,1778780276762,1778780276762,balanced,quota_balanced_round_robin,5.0,5.0,4.0,5.0,5.0,3.0,3.0,2.0,4.0,3.0,3.0,3.0,5.0,3.0,5.0,5.0,4.0,3.0,4.0,5.0,3.0,3.0,2.0,3.0,6.0,6.0,5.0,2.0,3.0,3.0,3.0,4.0,5.0,5.0,5.0,4.0,5.0,3.0,5.0,3.0,4.0,5.0,4.0,3.0,2.0,6.0,3.0,6.0,4.0,2.0,3.0,0.16666666666666666,0.0,0.75,0.75,-0.25,-0.75,-0.3333333333333333,0.75,2.0,3.0,0.9524
P_1778783292172_9344,C4,4,Hedge + Speech,1,1,Hedge,Speech,completed,30,30,2.75,2.8333333333333335,7.0,5.0,7.0,5.0,2.0,7.0,5.0,0.7,0.7,0.3,1.0,0.0,0.0,7.987166666666667,7.1575,0.6190476190476191,1.0,1.0,0.8888888888888888,0.0,1.0,P_1778783292172_9344_1778783887594.json,1,1,accepted,2,30,2,1778783292174,1778783886925,1778783886925,balanced,quota_balanced_round_robin,6.0,5.0,5.0,6.0,4.0,3.0,3.0,3.0,3.0,2.0,1.0,4.0,3.0,3.0,3.0,4.0,2.0,2.0,1.0,2.0,7.0,4.0,5.0,2.0,4.0,6.0,6.0,4.0,4.0,5.0,6.0,1.0,4.0,4.0,6.0,5.0,6.0,2.0,6.0,2.0,3.0,6.0,4.0,3.0,7.0,5.0,2.0,7.0,5.0,5.0,2.0,-1.5,-0.5,-1.0,-1.0,-0.5,-1.25,-0.75,-1.0,5.0,2.0,2.3495333333333335
P_1778790165724_448,C4,4,Hedge + Speech,1,1,Hedge,Speech,completed,30,30,3.75,4.666666666666667,4.0,4.0,4.0,5.0,4.0,4.0,4.0,0.1,0.7333333333333333,0.26666666666666666,0.7666666666666667,0.13333333333333333,0.1,4.6555,3.498,0.047619047619047616,0.8571428571428571,0.8571428571428571,0.2222222222222222,0.4444444444444444,0.5555555555555556,P_1778790165724_448_1778790617962.json,1,1,accepted,2,30,2,1778790165729,1778790617544,1778790617544,balanced,quota_balanced_round_robin,4.0,4.0,4.0,4.0,4.0,3.0,4.0,4.0,3.0,4.0,3.0,4.0,5.0,5.0,4.0,4.0,5.0,5.0,3.0,4.0,3.0,4.0,4.0,3.0,4.0,3.0,5.0,4.0,4.0,4.0,4.0,4.0,4.0,4.0,4.0,6.0,4.0,4.0,5.0,3.0,4.0,4.0,4.0,4.0,4.0,5.0,4.0,4.0,4.0,4.0,4.0,-0.16666666666666666,-0.25,0.25,-0.75,-0.25,-0.5,-0.3333333333333333,-0.25,4.0,4.0,0.5573
P_1778792030226_2528,C4,4,Hedge + Speech,1,1,Hedge,Speech,completed,30,30,2.3333333333333335,4.666666666666667,4.0,2.0,5.0,1.0,1.0,4.0,4.0,0.03333333333333333,0.7333333333333333,0.26666666666666666,0.6333333333333333,0.2,0.16666666666666666,3.7249333333333334,3.3315,0.047619047619047616,0.7619047619047619,0.7619047619047619,0.0,0.6666666666666666,0.3333333333333333,P_1778792030226_2528_1778792386095.json,1,1,accepted,2,30,2,1778792030228,1778792385694,1778792385694,balanced,quota_balanced_round_robin,6.0,5.0,5.0,5.0,5.0,3.0,2.0,2.0,2.0,1.0,1.0,3.0,6.0,3.0,5.0,4.0,6.0,4.0,3.0,2.0,6.0,6.0,5.0,2.0,2.0,2.0,5.0,5.0,2.0,5.0,3.0,2.0,6.0,2.0,7.0,6.0,5.0,2.0,5.0,2.0,6.0,6.0,5.0,2.0,5.0,1.0,1.0,4.0,4.0,5.0,6.0,-1.5,-1.5,-0.75,-1.75,-2.0,-1.75,-1.75,-1.25,5.0,6.0,0.1572333333333333
P_1778796276592_902,C4,4,Hedge + Speech,1,1,Hedge,Speech,completed,30,30,4.166666666666667,3.0,2.0,5.0,5.0,4.0,4.0,7.0,3.0,0.5333333333333333,0.7333333333333333,0.26666666666666666,0.7666666666666667,0.13333333333333333,0.1,10.698666666666666,9.623000000000001,0.47619047619047616,0.8571428571428571,0.8571428571428571,0.6666666666666666,0.4444444444444444,0.5555555555555556,P_1778796276592_902_1778797268755.json,1,1,accepted,2,30,2,1778796276594,1778797267963,1778797267963,balanced,quota_balanced_round_robin,4.0,3.0,2.0,1.0,1.0,3.0,3.0,3.0,3.0,3.0,3.0,3.0,3.0,1.0,4.0,2.0,3.0,1.0,5.0,5.0,4.0,6.0,4.0,4.0,4.0,5.0,2.0,4.0,4.0,2.0,6.0,6.0,2.0,6.0,4.0,4.0,2.0,2.0,3.0,5.0,2.0,4.0,4.0,4.0,5.0,4.0,4.0,7.0,3.0,7.0,5.0,1.1666666666666667,0.5,-0.5,0.0,0.75,0.75,0.6666666666666666,-0.25,7.0,5.0,3.8975
P_1778796798194_7151,C4,4,Hedge + Speech,1,1,Hedge,Speech,completed,30,30,4.416666666666667,1.1666666666666667,5.0,4.0,5.0,4.0,4.0,6.0,5.0,0.13333333333333333,0.8333333333333334,0.16666666666666666,0.8,0.16666666666666666,0.03333333333333333,10.9061,8.771999999999998,0.14285714285714285,0.9523809523809523,0.9523809523809523,0.1111111111111111,0.5555555555555556,0.4444444444444444,P_1778796798194_7151_1778798613715.json,1,1,accepted,2,30,2,1778796798196,1778798613171,1778798613171,balanced,quota_balanced_round_robin,5.0,2.0,2.0,2.0,1.0,4.0,4.0,3.0,4.0,4.0,4.0,2.0,1.0,1.0,1.0,6.0,1.0,1.0,7.0,7.0,2.0,1.0,3.0,7.0,7.0,6.0,4.0,2.0,6.0,1.0,2.0,6.0,6.0,7.0,2.0,2.0,2.0,6.0,6.0,6.0,2.0,2.0,2.0,6.0,5.0,4.0,4.0,6.0,5.0,3.0,4.0,2.5,0.5,2.0,2.25,2.0,1.5,1.3333333333333333,2.125,3.0,4.0,1.7371
P_1778796867720_9657,C4,4,Hedge + Speech,1,1,Hedge,Speech,completed,30,30,1.0,3.1666666666666665,5.0,3.0,3.0,3.0,1.0,3.0,5.0,0.0,0.0,1.0,0.3,0.0,0.7,1.3160333333333334,1.073,0.0,0.0,0.0,0.0,0.0,1.0,P_1778796867720_9657_1778797188808.json,1,1,accepted,2,30,2,1778796867723,1778797187823,1778797187823,balanced,quota_balanced_round_robin,7.0,7.0,7.0,7.0,7.0,1.0,1.0,1.0,1.0,1.0,1.0,1.0,4.0,1.0,4.0,4.0,2.0,4.0,1.0,4.0,7.0,1.0,7.0,1.0,1.0,4.0,4.0,5.0,1.0,7.0,4.0,1.0,2.0,1.0,7.0,7.0,7.0,1.0,7.0,1.0,5.0,7.0,7.0,1.0,3.0,3.0,1.0,3.0,5.0,7.0,1.0,-3.0,0.0,-2.25,-3.0,-2.25,-1.75,-1.3333333333333333,-2.625,7.0,1.0,0.0
P_1778800124360_4679,C4,4,Hedge + Speech,1,1,Hedge,Speech,completed,30,30,3.6666666666666665,2.6666666666666665,5.0,5.0,4.0,5.0,5.0,5.0,6.0,0.03333333333333333,0.6333333333333333,0.36666666666666664,0.8,0.06666666666666667,0.13333333333333333,4.341033333333333,3.5645,0.047619047619047616,0.8095238095238095,0.8095238095238095,0.0,0.2222222222222222,0.7777777777777778,P_1778800124360_4679_1778800582648.json,1,1,accepted,2,30,2,1778800124364,1778800635671,1778800635671,balanced,quota_balanced_round_robin,6.0,6.0,4.0,5.0,3.0,2.0,4.0,5.0,5.0,4.0,4.0,4.0,4.0,1.0,2.0,3.0,3.0,1.0,2.0,5.0,1.0,1.0,2.0,5.0,7.0,4.0,2.0,4.0,5.0,2.0,5.0,5.0,2.0,6.0,3.0,2.0,2.0,5.0,2.0,6.0,2.0,2.0,2.0,6.0,4.0,5.0,5.0,5.0,6.0,3.0,3.0,1.1666666666666667,1.75,0.75,2.0,1.0,1.75,1.5,1.375,3.0,3.0,0.12886666666666666
P_1778801852124_4942,C2,2,Hedge + Text,1,0,Hedge,Text,completed,30,30,4.583333333333333,3.0,4.0,5.0,6.0,5.0,6.0,7.0,6.0,0.9,0.6666666666666666,0.3333333333333333,0.9,0.03333333333333333,0.06666666666666667,19.928333333333335,16.021,0.9047619047619048,0.9047619047619048,0.9047619047619048,0.8888888888888888,0.1111111111111111,0.8888888888888888,P_1778801852124_4942_1778803413170.json,1,1,accepted,2,30,2,1778801852134,1778803412665,1778803412665,balanced,quota_balanced_round_robin,5.0,1.0,5.0,1.0,2.0,4.0,3.0,4.0,5.0,5.0,5.0,3.0,3.0,1.0,2.0,1.0,2.0,3.0,4.0,3.0,2.0,3.0,4.0,5.0,5.0,3.0,2.0,3.0,5.0,2.0,5.0,5.0,3.0,5.0,2.0,2.0,3.0,5.0,3.0,6.0,2.0,3.0,2.0,3.0,6.0,5.0,6.0,7.0,6.0,5.0,5.0,1.1666666666666667,0.5,0.25,1.0,0.75,1.75,1.0,0.625,5.0,5.0,9.180433333333333
P_1778825029428_5870,C4,4,Hedge + Speech,1,1,Hedge,Speech,completed,30,30,5.416666666666667,4.0,2.0,5.0,1.0,5.0,4.0,5.0,5.0,0.0,1.0,0.0,0.7,0.3,0.0,2.4471666666666665,1.6705,0.0,1.0,1.0,0.0,1.0,0.0,P_1778825029428_5870_1778825835306.json,1,1,accepted,2,30,2,1778825029431,1778825832423,1778825832423,balanced,quota_balanced_round_robin,1.0,3.0,2.0,2.0,1.0,4.0,5.0,5.0,4.0,5.0,5.0,6.0,7.0,1.0,7.0,6.0,6.0,1.0,3.0,3.0,6.0,5.0,5.0,5.0,5.0,5.0,5.0,5.0,4.0,5.0,5.0,5.0,5.0,5.0,4.0,4.0,5.0,5.0,5.0,5.0,5.0,5.0,5.0,5.0,1.0,5.0,4.0,5.0,5.0,5.0,5.0,-0.3333333333333333,-0.5,-0.25,0.25,0.0,0.0,-0.16666666666666666,0.0,5.0,5.0,0.0
P_1778825656907_3344,C1,1,No hedge + Text,0,0,No hedge,Text,completed,30,30,3.4166666666666665,1.8333333333333333,3.0,6.0,1.0,6.0,2.0,7.0,7.0,0.5666666666666667,0.7333333333333333,0.26666666666666666,0.9666666666666667,0.03333333333333333,0.0,18.71833333333333,13.771,0.42857142857142855,1.0,1.0,0.8888888888888888,0.1111111111111111,0.8888888888888888,P_1778825656907_3344_1778828268617.json,1,1,accepted,2,30,2,1778825656910,1778828269244,1778828269244,balanced,quota_balanced_round_robin,3.0,2.0,4.0,5.0,5.0,2.0,2.0,2.0,2.0,4.0,3.0,5.0,3.0,1.0,2.0,7.0,3.0,1.0,5.0,5.0,5.0,2.0,4.0,5.0,5.0,3.0,1.0,5.0,6.0,5.0,5.0,5.0,3.0,5.0,3.0,4.0,5.0,6.0,3.0,5.0,3.0,3.0,4.0,6.0,1.0,6.0,2.0,7.0,7.0,3.0,2.0,0.5,1.25,-0.25,0.5,0.25,1.75,1.0833333333333333,0.125,3.0,2.0,9.4133
P_1778828704454_61,C2,2,Hedge + Text,1,0,Hedge,Text,completed,30,30,3.4166666666666665,6.0,5.0,2.0,7.0,1.0,1.0,1.0,1.0,0.0,0.7,0.3,0.7333333333333333,0.13333333333333333,0.13333333333333333,9.703066666666667,5.233499999999999,0.0,0.8095238095238095,0.8095238095238095,0.0,0.4444444444444444,0.5555555555555556,P_1778828704454_61_1778829857532.json,1,1,accepted,2,30,2,1778828704457,1778829857035,1778829857035,balanced,quota_balanced_round_robin,5.0,3.0,4.0,1.0,4.0,3.0,3.0,1.0,7.0,1.0,1.0,2.0,7.0,7.0,7.0,1.0,7.0,1.0,1.0,1.0,7.0,7.0,7.0,1.0,1.0,1.0,7.0,7.0,1.0,7.0,7.0,1.0,1.0,1.0,7.0,7.0,7.0,1.0,7.0,1.0,7.0,7.0,7.0,1.0,7.0,1.0,1.0,1.0,1.0,1.0,1.0,-3.0,-1.5,-3.0,-3.0,-3.0,-3.0,-2.5,-3.0,1.0,1.0,0.0
P_1778829089496_8631,C2,2,Hedge + Text,1,0,Hedge,Text,completed,30,30,3.9166666666666665,4.833333333333333,6.0,2.0,6.0,4.0,5.0,4.0,6.0,0.3333333333333333,0.7,0.3,0.9333333333333333,0.03333333333333333,0.03333333333333333,13.988166666666666,8.4165,0.2857142857142857,0.9523809523809523,0.9523809523809523,0.4444444444444444,0.1111111111111111,0.8888888888888888,P_1778829089496_8631_1778830113264.json,1,1,accepted,2,30,2,1778829089499,1778830112228,1778830112228,balanced,quota_balanced_round_robin,6.0,5.0,5.0,5.0,5.0,4.0,5.0,4.0,4.0,6.0,5.0,5.0,6.0,3.0,5.0,3.0,5.0,5.0,6.0,4.0,5.0,5.0,4.0,5.0,5.0,6.0,4.0,5.0,4.0,5.0,4.0,6.0,3.0,5.0,4.0,5.0,4.0,6.0,4.0,6.0,5.0,4.0,5.0,5.0,6.0,4.0,5.0,4.0,6.0,5.0,5.0,0.5,-0.25,-0.5,0.25,0.5,0.75,0.3333333333333333,-0.125,5.0,5.0,2.8243666666666667
P_1778833442101_9088,C3,3,No hedge + Speech,0,1,No hedge,Speech,completed,30,30,3.5833333333333335,3.6666666666666665,4.0,6.0,4.0,5.0,5.0,4.0,5.0,0.1,0.6333333333333333,0.36666666666666664,0.6,0.16666666666666666,0.23333333333333334,8.358733333333333,6.4239999999999995,0.09523809523809523,0.6666666666666666,0.6666666666666666,0.1111111111111111,0.5555555555555556,0.4444444444444444,P_1778833442101_9088_1778834166841.json,1,1,accepted,2,30,2,1778833442104,1778834166092,1778834166092,balanced,quota_balanced_round_robin,5.0,5.0,5.0,4.0,3.0,4.0,3.0,3.0,4.0,4.0,3.0,4.0,5.0,3.0,3.0,5.0,3.0,5.0,4.0,4.0,3.0,4.0,3.0,4.0,3.0,5.0,3.0,5.0,4.0,5.0,4.0,5.0,5.0,5.0,5.0,5.0,4.0,4.0,4.0,5.0,5.0,4.0,5.0,4.0,4.0,5.0,5.0,4.0,5.0,4.0,4.0,0.0,0.0,0.25,-0.25,0.0,0.25,0.08333333333333333,0.0,4.0,4.0,0.9070333333333332
P_1778834021078_7780,C3,3,No hedge + Speech,0,1,No hedge,Speech,completed,30,30,4.666666666666667,4.333333333333333,2.0,5.0,1.0,5.0,4.0,6.0,5.0,0.2,0.5666666666666667,0.43333333333333335,0.7333333333333333,0.06666666666666667,0.2,9.047566666666667,5.7395,0.19047619047619047,0.7142857142857143,0.7142857142857143,0.2222222222222222,0.2222222222222222,0.7777777777777778,P_1778834021078_7780_1778834785224.json,1,1,accepted,2,30,2,1778834021079,1778834780612,1778834780612,balanced,quota_balanced_round_robin,3.0,2.0,2.0,2.0,2.0,4.0,4.0,3.0,4.0,4.0,3.0,5.0,5.0,2.0,4.0,3.0,4.0,6.0,4.0,4.0,4.0,3.0,4.0,3.0,3.0,4.0,4.0,4.0,4.0,4.0,4.0,4.0,4.0,4.0,3.0,5.0,3.0,4.0,3.0,4.0,2.0,4.0,3.0,3.0,1.0,5.0,4.0,6.0,5.0,3.0,2.0,0.16666666666666666,0.5,-0.25,-0.75,0.5,0.5,0.5,-0.5,3.0,2.0,1.9091333333333333
P_1778841129896_1531,C3,3,No hedge + Speech,0,1,No hedge,Speech,completed,30,30,3.75,3.1666666666666665,1.0,7.0,2.0,5.0,4.0,6.0,6.0,0.6666666666666666,0.6333333333333333,0.36666666666666664,0.9333333333333333,0.0,0.06666666666666667,12.4633,10.5245,0.6190476190476191,0.9047619047619048,0.9047619047619048,0.7777777777777778,0.0,1.0,P_1778841129896_1531_1778842139126.json,1,1,accepted,2,30,2,1778841129899,1778842138658,1778842138658,balanced,quota_balanced_round_robin,5.0,2.0,1.0,3.0,4.0,2.0,1.0,3.0,3.0,3.0,3.0,5.0,3.0,1.0,5.0,2.0,3.0,1.0,4.0,5.0,5.0,2.0,3.0,2.0,4.0,4.0,5.0,6.0,4.0,3.0,6.0,4.0,2.0,4.0,4.0,4.0,5.0,3.0,2.0,3.0,3.0,4.0,5.0,3.0,2.0,5.0,4.0,6.0,6.0,2.0,1.0,0.0,1.75,-1.5,-0.25,-0.25,-0.5,0.3333333333333333,-0.875,2.0,1.0,5.0381
P_1778841297733_4531,C3,3,No hedge + Speech,0,1,No hedge,Speech,completed,30,30,2.9166666666666665,4.5,2.0,7.0,2.0,7.0,3.0,7.0,5.0,0.3,0.7,0.3,0.8666666666666667,0.06666666666666667,0.06666666666666667,10.9207,6.6165,0.23809523809523808,0.9047619047619048,0.9047619047619048,0.4444444444444444,0.2222222222222222,0.7777777777777778,P_1778841297733_4531_1778842067729.json,1,1,accepted,2,30,2,1778841297736,1778842067256,1778842067256,balanced,quota_balanced_round_robin,6.0,6.0,6.0,6.0,6.0,4.0,3.0,3.0,3.0,3.0,3.0,6.0,6.0,4.0,3.0,5.0,5.0,6.0,4.0,5.0,1.0,4.0,3.0,5.0,6.0,6.0,4.0,3.0,6.0,2.0,5.0,5.0,5.0,5.0,3.0,3.0,3.0,5.0,3.0,6.0,3.0,2.0,4.0,6.0,2.0,7.0,3.0,7.0,5.0,2.0,3.0,1.0,0.75,1.75,1.25,1.5,1.0,1.0833333333333333,1.5,2.0,3.0,3.4192666666666667
P_1778845247630_9479,C2,2,Hedge + Text,1,0,Hedge,Text,completed,30,30,5.25,2.3333333333333335,2.0,6.0,2.0,7.0,6.0,7.0,6.0,0.2,0.6666666666666666,0.3333333333333333,0.9,0.03333333333333333,0.06666666666666667,7.4098999999999995,5.340999999999999,0.047619047619047616,0.9047619047619048,0.9047619047619048,0.5555555555555556,0.1111111111111111,0.8888888888888888,P_1778845247630_9479_1778846231550.json,1,1,accepted,2,30,2,1778845247631,1778846230113,1778846230113,balanced,quota_balanced_round_robin,1.0,1.0,2.0,4.0,2.0,5.0,4.0,4.0,5.0,5.0,5.0,5.0,1.0,1.0,2.0,2.0,2.0,2.0,5.0,6.0,2.0,2.0,1.0,5.0,5.0,6.0,4.0,3.0,5.0,4.0,6.0,4.0,4.0,5.0,3.0,3.0,2.0,5.0,2.0,7.0,3.0,3.0,4.0,5.0,2.0,7.0,6.0,7.0,6.0,2.0,2.0,0.5,2.0,1.0,1.5,1.5,1.25,1.5833333333333333,1.25,2.0,2.0,1.6142666666666667
P_1778859314562_9490,C3,3,No hedge + Speech,0,1,No hedge,Speech,completed,30,30,4.333333333333333,5.333333333333333,2.0,6.0,5.0,5.0,6.0,6.0,6.0,0.0,0.9,0.1,0.8,0.2,0.0,3.315533333333333,2.902,0.0,1.0,1.0,0.0,0.6666666666666666,0.3333333333333333,P_1778859314562_9490_1778859760049.json,1,1,accepted,2,30,2,1778859314564,1778859759344,1778859759344,balanced,quota_balanced_round_robin,6.0,5.0,5.0,6.0,5.0,5.0,4.0,6.0,6.0,6.0,6.0,6.0,7.0,7.0,7.0,7.0,5.0,5.0,5.0,6.0,5.0,2.0,2.0,3.0,3.0,1.0,3.0,3.0,4.0,2.0,2.0,5.0,5.0,6.0,5.0,3.0,2.0,5.0,2.0,6.0,2.0,2.0,2.0,4.0,5.0,5.0,6.0,6.0,6.0,6.0,5.0,1.6666666666666667,1.0,0.25,0.25,-0.5,1.5,0.6666666666666666,0.25,6.0,5.0,0.0
P_1778859408277_6391,C3,3,No hedge + Speech,0,1,No hedge,Speech,completed,30,30,3.8333333333333335,2.6666666666666665,1.0,7.0,1.0,6.0,6.0,6.0,6.0,0.43333333333333335,0.7,0.3,0.8666666666666667,0.06666666666666667,0.06666666666666667,6.644433333333334,5.147,0.42857142857142855,0.9047619047619048,0.9047619047619048,0.4444444444444444,0.2222222222222222,0.7777777777777778,P_1778859408277_6391_1778860146028.json,1,1,accepted,2,30,2,1778859408278,1778860145565,1778860145565,balanced,quota_balanced_round_robin,4.0,2.0,2.0,2.0,4.0,4.0,4.0,4.0,2.0,2.0,2.0,2.0,3.0,1.0,2.0,6.0,3.0,5.0,4.0,6.0,3.0,5.0,6.0,4.0,6.0,2.0,5.0,4.0,4.0,4.0,4.0,4.0,3.0,6.0,6.0,4.0,3.0,6.0,2.0,6.0,2.0,4.0,3.0,6.0,1.0,6.0,6.0,6.0,6.0,2.0,4.0,0.5,0.75,0.5,0.0,-0.75,1.25,0.4166666666666667,0.25,2.0,4.0,2.5135666666666667
P_1778859724015_9009,C3,3,No hedge + Speech,0,1,No hedge,Speech,completed,30,30,1.6666666666666667,2.5,1.0,7.0,1.0,7.0,3.0,5.0,6.0,0.6666666666666666,0.7333333333333333,0.26666666666666666,0.9666666666666667,0.03333333333333333,0.0,18.74226666666667,17.197,0.6190476190476191,1.0,1.0,0.7777777777777778,0.1111111111111111,0.8888888888888888,P_1778859724015_9009_1778860854053.json,1,1,accepted,2,30,2,1778859724018,1778860853899,1778860853899,balanced,quota_balanced_round_robin,6.0,5.0,5.0,6.0,7.0,1.0,1.0,1.0,1.0,1.0,1.0,3.0,4.0,2.0,4.0,6.0,2.0,1.0,1.0,5.0,5.0,3.0,4.0,3.0,4.0,3.0,4.0,4.0,3.0,6.0,4.0,2.0,3.0,3.0,5.0,5.0,5.0,3.0,3.0,3.0,4.0,4.0,4.0,4.0,1.0,7.0,3.0,5.0,6.0,1.0,1.0,-1.3333333333333333,0.75,-0.5,-0.5,-1.0,-0.5,-0.25,-0.5,1.0,1.0,9.527166666666666
P_1778859779090_6322,C3,3,No hedge + Speech,0,1,No hedge,Speech,completed,30,30,3.8333333333333335,2.1666666666666665,4.0,4.0,2.0,4.0,6.0,5.0,6.0,0.1,0.7,0.3,0.8666666666666667,0.06666666666666667,0.06666666666666667,6.084333333333333,4.131,0.047619047619047616,0.9047619047619048,0.9047619047619048,0.2222222222222222,0.2222222222222222,0.7777777777777778,P_1778859779090_6322_1778860606138.json,1,1,accepted,2,30,2,1778859779093,1778860605223,1778860605223,balanced,quota_balanced_round_robin,1.0,1.0,3.0,3.0,1.0,1.0,1.0,1.0,3.0,3.0,3.0,3.0,3.0,1.0,1.0,3.0,2.0,1.0,4.0,7.0,4.0,4.0,4.0,4.0,4.0,1.0,4.0,3.0,4.0,4.0,4.0,4.0,4.0,4.0,4.0,4.0,4.0,4.0,4.0,4.0,4.0,4.0,4.0,4.0,2.0,4.0,6.0,5.0,6.0,1.0,1.0,0.0,0.75,0.25,0.0,-0.75,0.0,0.0,0.125,1.0,1.0,1.1285
P_1778863062210_6910,C3,3,No hedge + Speech,0,1,No hedge,Speech,completed,30,30,4.166666666666667,2.8333333333333335,1.0,7.0,1.0,7.0,5.0,7.0,6.0,0.7,0.6666666666666666,0.3333333333333333,0.9,0.03333333333333333,0.06666666666666667,11.865433333333334,10.945,0.6190476190476191,0.9047619047619048,0.9047619047619048,0.8888888888888888,0.1111111111111111,0.8888888888888888,P_1778863062210_6910_1778863963531.json,1,1,accepted,2,30,2,1778863062211,1778863963863,1778863963863,balanced,quota_balanced_round_robin,1.0,1.0,1.0,5.0,5.0,3.0,3.0,4.0,2.0,2.0,2.0,7.0,3.0,1.0,2.0,2.0,2.0,3.0,6.0,6.0,2.0,2.0,4.0,5.0,5.0,2.0,5.0,6.0,6.0,3.0,6.0,6.0,5.0,5.0,5.0,4.0,3.0,5.0,2.0,5.0,2.0,3.0,3.0,4.0,1.0,7.0,5.0,7.0,6.0,2.0,6.0,1.3333333333333333,2.0,0.25,0.5,0.0,0.75,0.9166666666666666,0.375,2.0,6.0,4.752466666666667
P_1778863632442_2132,C3,3,No hedge + Speech,0,1,No hedge,Speech,completed,30,30,1.4166666666666667,2.0,6.0,3.0,6.0,6.0,1.0,7.0,7.0,0.6,0.7333333333333333,0.26666666666666666,0.9666666666666667,0.03333333333333333,0.0,11.131300000000001,6.702500000000001,0.5238095238095238,1.0,1.0,0.7777777777777778,0.1111111111111111,0.8888888888888888,P_1778863632442_2132_1778864612614.json,1,1,accepted,2,30,2,1778863632447,1778864611522,1778864611522,balanced,quota_balanced_round_robin,7.0,7.0,7.0,7.0,7.0,1.0,1.0,1.0,1.0,1.0,1.0,6.0,1.0,1.0,1.0,1.0,1.0,1.0,1.0,6.0,7.0,5.0,7.0,1.0,1.0,1.0,1.0,1.0,1.0,7.0,6.0,1.0,1.0,1.0,7.0,6.0,7.0,1.0,7.0,1.0,7.0,7.0,5.0,1.0,6.0,6.0,1.0,7.0,7.0,1.0,1.0,-2.6666666666666665,0.0,-1.5,-2.75,-3.0,-1.5,-1.5,-2.125,1.0,1.0,2.1015
P_1778864979990_4498,C3,3,No hedge + Speech,0,1,No hedge,Speech,completed,30,30,3.9166666666666665,4.333333333333333,4.0,5.0,2.0,2.0,2.0,2.0,2.0,0.0,0.9,0.1,0.7333333333333333,0.23333333333333334,0.03333333333333333,1.2132,1.165,0.0,0.9523809523809523,0.9523809523809523,0.0,0.7777777777777778,0.2222222222222222,P_1778864979990_4498_1778865157125.json,1,1,accepted,2,30,2,1778864979991,1778865156088,1778865156087,balanced,quota_balanced_round_robin,4.0,5.0,6.0,4.0,5.0,4.0,5.0,4.0,5.0,4.0,4.0,5.0,5.0,5.0,4.0,4.0,5.0,3.0,5.0,4.0,5.0,5.0,4.0,5.0,4.0,5.0,4.0,5.0,4.0,5.0,4.0,2.0,5.0,2.0,5.0,5.0,5.0,6.0,5.0,4.0,5.0,7.0,5.0,5.0,2.0,2.0,2.0,2.0,2.0,2.0,2.0,-1.3333333333333333,-0.5,0.0,0.0,-0.25,0.25,-0.16666666666666666,0.0,2.0,2.0,0.0
P_1778869530326_8120,C2,2,Hedge + Text,1,0,Hedge,Text,completed,30,30,2.8333333333333335,3.8333333333333335,7.0,1.0,6.0,7.0,7.0,7.0,6.0,0.6666666666666666,0.6333333333333333,0.36666666666666664,0.8666666666666667,0.03333333333333333,0.1,17.953033333333334,16.6995,0.6666666666666666,0.8571428571428571,0.8571428571428571,0.6666666666666666,0.1111111111111111,0.8888888888888888,P_1778869530326_8120_1778870921882.json,1,1,accepted,2,30,2,1778869530331,1778870921087,1778870921087,balanced,quota_balanced_round_robin,4.0,4.0,3.0,5.0,5.0,2.0,2.0,2.0,2.0,2.0,2.0,3.0,5.0,1.0,2.0,2.0,4.0,5.0,4.0,4.0,2.0,4.0,3.0,4.0,5.0,3.0,4.0,3.0,4.0,3.0,2.0,4.0,4.0,3.0,4.0,4.0,4.0,6.0,3.0,4.0,3.0,3.0,3.0,5.0,6.0,7.0,7.0,7.0,6.0,2.0,4.0,0.3333333333333333,-0.25,1.0,0.5,-0.25,0.75,0.08333333333333333,0.75,2.0,4.0,8.183833333333332
P_1778916390500_7722,C3,3,No hedge + Speech,0,1,No hedge,Speech,completed,30,30,4.083333333333333,3.5,2.0,4.0,3.0,3.0,3.0,5.0,5.0,0.03333333333333333,0.5,0.5,0.5333333333333333,0.13333333333333333,0.3333333333333333,1.9793999999999998,1.5145,0.047619047619047616,0.5238095238095238,0.5238095238095238,0.0,0.4444444444444444,0.5555555555555556,P_1778916390500_7722_1778916628351.json,1,1,accepted,2,30,2,1778916390503,1778916627777,1778916627777,balanced,quota_balanced_round_robin,2.0,3.0,4.0,4.0,3.0,5.0,4.0,3.0,4.0,2.0,4.0,3.0,3.0,4.0,3.0,4.0,3.0,4.0,5.0,6.0,5.0,4.0,3.0,4.0,6.0,5.0,4.0,2.0,4.0,3.0,4.0,3.0,4.0,4.0,5.0,3.0,3.0,4.0,5.0,5.0,3.0,4.0,5.0,3.0,3.0,3.0,3.0,5.0,5.0,5.0,4.0,0.0,0.25,0.0,1.0,0.25,0.5,0.3333333333333333,0.5,5.0,4.0,0.08836666666666666
P_1778918939687_1004,C3,3,No hedge + Speech,0,1,No hedge,Speech,completed,30,30,4.5,3.3333333333333335,1.0,6.0,3.0,3.0,3.0,3.0,3.0,0.03333333333333333,0.6333333333333333,0.36666666666666664,0.6,0.16666666666666666,0.23333333333333334,3.3,1.5745,0.0,0.6666666666666666,0.6666666666666666,0.1111111111111111,0.5555555555555556,0.4444444444444444,P_1778918939687_1004_1778919230767.json,1,1,accepted,2,30,2,1778918939688,1778919231498,1778919231498,balanced,quota_balanced_round_robin,2.0,1.0,1.0,1.0,1.0,3.0,2.0,3.0,3.0,3.0,3.0,3.0,3.0,3.0,3.0,3.0,3.0,3.0,5.0,4.0,2.0,2.0,2.0,4.0,3.0,2.0,4.0,2.0,5.0,3.0,3.0,5.0,4.0,4.0,4.0,3.0,2.0,2.0,2.0,6.0,2.0,2.0,3.0,3.0,3.0,3.0,3.0,3.0,3.0,3.0,3.0,1.0,0.75,0.75,0.5,0.25,0.5,0.5,0.625,3.0,3.0,0.11636666666666667
P_1778925422387_2108,C3,3,No hedge + Speech,0,1,No hedge,Speech,completed,30,30,3.3333333333333335,3.3333333333333335,1.0,7.0,1.0,7.0,4.0,6.0,6.0,0.4666666666666667,0.6333333333333333,0.36666666666666664,0.9333333333333333,0.0,0.06666666666666667,12.188533333333334,8.977,0.38095238095238093,0.9047619047619048,0.9047619047619048,0.6666666666666666,0.0,1.0,P_1778925422387_2108_1778926383348.json,1,1,accepted,2,30,2,1778925422388,1778926383126,1778926383126,balanced,quota_balanced_round_robin,4.0,4.0,5.0,4.0,4.0,2.0,3.0,4.0,3.0,3.0,2.0,4.0,5.0,2.0,4.0,6.0,5.0,2.0,4.0,6.0,4.0,5.0,3.0,4.0,5.0,2.0,4.0,5.0,4.0,4.0,5.0,4.0,3.0,4.0,3.0,4.0,5.0,6.0,4.0,4.0,3.0,4.0,4.0,3.0,1.0,7.0,4.0,6.0,6.0,4.0,2.0,0.0,0.5,-0.75,0.5,-0.5,0.75,0.25,-0.125,4.0,2.0,4.960166666666667
P_1778927249510_2817,C1,1,No hedge + Text,0,0,No hedge,Text,completed,30,30,3.8333333333333335,3.0,2.0,6.0,2.0,7.0,6.0,7.0,3.0,0.6666666666666666,0.7333333333333333,0.26666666666666666,0.9,0.06666666666666667,0.03333333333333333,11.022166666666667,10.817499999999999,0.6190476190476191,0.9523809523809523,0.9523809523809523,0.7777777777777778,0.2222222222222222,0.7777777777777778,P_1778927249510_2817_1778928255613.json,1,1,accepted,2,30,2,1778927249519,1778928254837,1778928254837,balanced,quota_balanced_round_robin,4.0,3.0,1.0,3.0,1.0,2.0,1.0,1.0,4.0,3.0,2.0,5.0,2.0,1.0,2.0,2.0,4.0,3.0,5.0,3.0,4.0,3.0,3.0,5.0,6.0,4.0,5.0,4.0,3.0,2.0,3.0,4.0,3.0,3.0,4.0,3.0,3.0,4.0,5.0,4.0,2.0,3.0,3.0,5.0,2.0,7.0,6.0,7.0,3.0,6.0,4.0,0.6666666666666666,-0.5,0.0,1.25,0.0,0.25,-0.08333333333333333,0.625,6.0,4.0,3.9113333333333333
P_1778933322235_105,C4,4,Hedge + Speech,1,1,Hedge,Speech,completed,30,30,3.0,3.1666666666666665,7.0,2.0,6.0,2.0,4.0,4.0,6.0,0.6666666666666666,0.6666666666666666,0.3333333333333333,0.9,0.03333333333333333,0.06666666666666667,17.521833333333333,12.9805,0.6190476190476191,0.9047619047619048,0.9047619047619048,0.7777777777777778,0.1111111111111111,0.8888888888888888,P_1778933322235_105_1778934607244.json,1,1,accepted,2,30,2,1778933322238,1778934607114,1778934607114,balanced,quota_balanced_round_robin,3.0,4.0,6.0,5.0,3.0,2.0,3.0,3.0,2.0,3.0,2.0,2.0,4.0,1.0,2.0,2.0,3.0,3.0,3.0,6.0,6.0,1.0,7.0,2.0,2.0,6.0,5.0,6.0,4.0,4.0,6.0,2.0,3.0,3.0,4.0,5.0,4.0,4.0,2.0,4.0,2.0,4.0,4.0,4.0,6.0,2.0,4.0,4.0,6.0,5.0,5.0,-0.6666666666666666,2.25,-1.25,-2.0,0.5,0.25,1.0,-1.625,5.0,5.0,8.006066666666667
P_1778937849014_6773,C3,3,No hedge + Speech,0,1,No hedge,Speech,completed,30,30,4.25,3.6666666666666665,2.0,6.0,3.0,5.0,6.0,3.0,3.0,0.0,0.9333333333333333,0.06666666666666667,0.7666666666666667,0.23333333333333334,0.0,6.236766666666667,5.7345,0.0,1.0,1.0,0.0,0.7777777777777778,0.2222222222222222,P_1778937849014_6773_1778938667777.json,1,1,accepted,2,30,2,1778937849016,1778938666089,1778938666089,balanced,quota_balanced_round_robin,5.0,5.0,3.0,4.0,4.0,4.0,4.0,5.0,5.0,5.0,4.0,5.0,5.0,4.0,3.0,6.0,4.0,4.0,3.0,6.0,3.0,2.0,2.0,4.0,4.0,5.0,2.0,5.0,5.0,3.0,6.0,4.0,3.0,4.0,3.0,4.0,3.0,6.0,2.0,5.0,3.0,3.0,3.0,5.0,3.0,5.0,6.0,3.0,3.0,3.0,3.0,0.3333333333333333,2.0,0.0,0.5,1.0,1.5,1.5,0.25,3.0,3.0,0.0
P_1778951845187_8179,C1,1,No hedge + Text,0,0,No hedge,Text,completed,30,30,4.166666666666667,4.666666666666667,6.0,6.0,4.0,5.0,4.0,5.0,5.0,0.03333333333333333,0.6333333333333333,0.36666666666666664,0.7333333333333333,0.1,0.16666666666666666,6.966933333333333,5.848000000000001,0.0,0.7619047619047619,0.7619047619047619,0.1111111111111111,0.3333333333333333,0.6666666666666666,P_1778951845187_8179_1778955628778.json,1,1,accepted,2,30,2,1778951845189,1778955627976,1778955627976,balanced,quota_balanced_round_robin,6.0,5.0,6.0,5.0,5.0,5.0,5.0,5.0,5.0,6.0,6.0,5.0,5.0,5.0,5.0,5.0,5.0,5.0,6.0,6.0,5.0,2.0,2.0,4.0,6.0,4.0,2.0,4.0,5.0,3.0,4.0,4.0,4.0,5.0,4.0,4.0,4.0,5.0,2.0,6.0,5.0,3.0,2.0,4.0,4.0,5.0,4.0,5.0,5.0,6.0,5.0,1.1666666666666667,1.5,-0.25,1.0,0.25,1.0,0.9166666666666666,0.375,6.0,5.0,0.32903333333333334
P_1778964675197_697,C2,2,Hedge + Text,1,0,Hedge,Text,completed,30,30,3.1666666666666665,3.3333333333333335,5.0,4.0,3.0,3.0,3.0,6.0,4.0,0.26666666666666666,0.8666666666666667,0.13333333333333333,0.8333333333333334,0.16666666666666666,0.0,6.256166666666667,4.114000000000001,0.23809523809523808,1.0,1.0,0.3333333333333333,0.5555555555555556,0.4444444444444444,P_1778964675197_697_1778965121234.json,1,1,accepted,2,30,2,1778964675199,1778965120779,1778965120779,balanced,quota_balanced_round_robin,5.0,5.0,5.0,5.0,4.0,3.0,3.0,3.0,3.0,3.0,2.0,5.0,4.0,1.0,3.0,3.0,3.0,4.0,3.0,4.0,5.0,3.0,6.0,3.0,3.0,2.0,1.0,5.0,3.0,5.0,6.0,3.0,5.0,3.0,5.0,5.0,6.0,2.0,5.0,1.0,2.0,2.0,2.0,4.0,3.0,3.0,3.0,6.0,4.0,3.0,4.0,0.0,0.5,-0.25,-1.25,-1.5,0.0,-0.3333333333333333,-0.75,3.0,4.0,1.5965666666666667
P_1779000818799_2602,C2,2,Hedge + Text,1,0,Hedge,Text,completed,30,30,2.0,1.0,7.0,1.0,7.0,1.0,1.0,1.0,7.0,0.43333333333333335,0.7666666666666667,0.23333333333333334,0.9333333333333333,0.06666666666666667,0.0,11.131866666666667,7.8045,0.38095238095238093,1.0,1.0,0.5555555555555556,0.2222222222222222,0.7777777777777778,P_1779000818799_2602_1779001563216.json,1,1,accepted,2,30,2,1779000818802,1779001562343,1779001562343,balanced,quota_balanced_round_robin,7.0,7.0,7.0,7.0,1.0,1.0,1.0,1.0,1.0,1.0,1.0,7.0,1.0,1.0,1.0,7.0,1.0,1.0,1.0,7.0,7.0,1.0,7.0,1.0,1.0,1.0,1.0,5.0,1.0,7.0,7.0,1.0,1.0,1.0,7.0,7.0,7.0,1.0,1.0,1.0,1.0,7.0,1.0,1.0,7.0,1.0,1.0,1.0,7.0,7.0,1.0,-2.0,3.0,-2.5,-3.0,-3.0,0.0,0.0,-2.75,7.0,1.0,4.831366666666667
P_1779010646107_7088,C1,1,No hedge + Text,0,0,No hedge,Text,completed,30,30,2.5833333333333335,2.0,2.0,6.0,3.0,6.0,6.0,7.0,6.0,0.4666666666666667,0.6,0.4,0.9,0.0,0.1,15.678866666666666,11.7035,0.42857142857142855,0.8571428571428571,0.8571428571428571,0.5555555555555556,0.0,1.0,P_1779010646107_7088_1779011941467.json,1,1,accepted,2,30,2,1779010646110,1779011941009,1779011941009,balanced,quota_balanced_round_robin,3.0,1.0,6.0,6.0,3.0,1.0,1.0,1.0,2.0,2.0,1.0,2.0,3.0,1.0,2.0,4.0,1.0,1.0,4.0,5.0,4.0,2.0,4.0,3.0,4.0,4.0,4.0,4.0,4.0,5.0,6.0,3.0,3.0,3.0,6.0,4.0,6.0,3.0,5.0,3.0,4.0,6.0,6.0,4.0,3.0,6.0,6.0,7.0,6.0,2.0,2.0,-1.1666666666666667,1.0,-0.25,-0.25,-1.0,-0.5,-0.16666666666666666,-0.25,2.0,2.0,5.474733333333333
P_1779011444033_6599,C2,2,Hedge + Text,1,0,Hedge,Text,completed,30,30,3.4166666666666665,3.5,4.0,4.0,5.0,3.0,4.0,5.0,5.0,0.6333333333333333,0.6,0.4,0.7666666666666667,0.06666666666666667,0.16666666666666666,17.7347,17.0045,0.5714285714285714,0.7619047619047619,0.7619047619047619,0.7777777777777778,0.2222222222222222,0.7777777777777778,P_1779011444033_6599_1779012593850.json,1,1,accepted,2,30,2,1779011444037,1779012592648,1779012592648,balanced,quota_balanced_round_robin,4.0,5.0,5.0,5.0,4.0,4.0,3.0,3.0,4.0,3.0,2.0,5.0,4.0,2.0,4.0,5.0,4.0,4.0,5.0,5.0,4.0,3.0,2.0,5.0,4.0,5.0,2.0,3.0,5.0,3.0,5.0,4.0,4.0,4.0,5.0,4.0,2.0,5.0,2.0,6.0,2.0,3.0,3.0,4.0,5.0,3.0,4.0,5.0,5.0,4.0,4.0,0.6666666666666666,1.25,0.25,0.75,0.75,1.75,1.25,0.5,4.0,4.0,6.947333333333333
P_1779032199414_8568,C2,2,Hedge + Text,1,0,Hedge,Text,completed,30,30,4.5,2.8333333333333335,6.0,5.0,5.0,5.0,5.0,7.0,3.0,0.4,0.7333333333333333,0.26666666666666666,0.8333333333333334,0.1,0.06666666666666667,17.8378,11.578,0.3333333333333333,0.9047619047619048,0.9047619047619048,0.5555555555555556,0.3333333333333333,0.6666666666666666,P_1779032199414_8568_1779033531138.json,1,1,accepted,2,30,2,1779032199417,1779033530311,1779033530311,balanced,quota_balanced_round_robin,4.0,4.0,2.0,4.0,2.0,5.0,4.0,4.0,4.0,6.0,3.0,4.0,3.0,1.0,3.0,3.0,3.0,2.0,2.0,3.0,5.0,4.0,3.0,2.0,2.0,4.0,4.0,4.0,6.0,4.0,4.0,2.0,6.0,3.0,4.0,4.0,3.0,5.0,5.0,4.0,2.0,4.0,1.0,4.0,5.0,5.0,5.0,7.0,3.0,5.0,6.0,-0.3333333333333333,-0.5,0.25,-0.75,0.75,0.75,0.3333333333333333,-0.25,5.0,6.0,4.1780333333333335
P_1779048380762_7396,C2,2,Hedge + Text,1,0,Hedge,Text,completed,30,30,4.583333333333333,3.5,4.0,6.0,4.0,5.0,4.0,7.0,5.0,1.0,0.6333333333333333,0.36666666666666664,0.8666666666666667,0.03333333333333333,0.1,22.202233333333332,23.309,1.0,0.8571428571428571,0.8571428571428571,1.0,0.1111111111111111,0.8888888888888888,P_1779048380762_7396_1779049701844.json,1,1,accepted,2,30,2,1779048380766,1779049701498,1779049701498,balanced,quota_balanced_round_robin,1.0,1.0,1.0,2.0,2.0,6.0,3.0,3.0,3.0,3.0,3.0,1.0,4.0,4.0,2.0,5.0,4.0,4.0,4.0,4.0,3.0,5.0,6.0,5.0,5.0,2.0,4.0,4.0,6.0,3.0,5.0,5.0,4.0,5.0,4.0,2.0,4.0,6.0,2.0,6.0,4.0,2.0,2.0,6.0,4.0,5.0,4.0,7.0,5.0,2.0,3.0,1.1666666666666667,0.5,0.75,0.5,0.0,1.0,0.5,0.625,2.0,3.0,12.432866666666666
P_1779048999001_2808,C1,1,No hedge + Text,0,0,No hedge,Text,completed,30,30,3.25,3.5,5.0,3.0,4.0,7.0,7.0,7.0,7.0,0.5666666666666667,0.6666666666666666,0.3333333333333333,0.9,0.03333333333333333,0.06666666666666667,23.2833,15.722999999999999,0.47619047619047616,0.9047619047619048,0.9047619047619048,0.7777777777777778,0.1111111111111111,0.8888888888888888,P_1779048999001_2808_1779050932568.json,1,1,accepted,2,30,2,1779048999004,1779050932169,1779050932169,balanced,quota_balanced_round_robin,5.0,2.0,5.0,7.0,6.0,3.0,4.0,4.0,3.0,3.0,3.0,4.0,5.0,2.0,1.0,2.0,3.0,4.0,5.0,3.0,1.0,1.0,3.0,6.0,7.0,4.0,1.0,4.0,4.0,4.0,3.0,4.0,3.0,5.0,4.0,5.0,6.0,3.0,7.0,5.0,1.0,2.0,4.0,4.0,4.0,7.0,7.0,7.0,7.0,6.0,4.0,0.6666666666666666,-0.5,0.5,1.25,-0.5,1.5,0.16666666666666666,0.875,6.0,4.0,7.547066666666667
P_1779051258244_4803,C2,2,Hedge + Text,1,0,Hedge,Text,completed,30,30,5.083333333333333,2.5,5.0,3.0,7.0,4.0,2.0,6.0,6.0,0.13333333333333333,0.6666666666666666,0.3333333333333333,0.9,0.03333333333333333,0.06666666666666667,4.562733333333333,2.2664999999999997,0.09523809523809523,0.9047619047619048,0.9047619047619048,0.2222222222222222,0.1111111111111111,0.8888888888888888,P_1779051258244_4803_1779051857342.json,1,1,accepted,2,30,2,1779051258248,1779051856645,1779051856645,balanced,quota_balanced_round_robin,3.0,2.0,2.0,6.0,5.0,5.0,6.0,6.0,5.0,5.0,5.0,7.0,3.0,1.0,5.0,6.0,2.0,2.0,5.0,6.0,4.0,6.0,3.0,5.0,6.0,3.0,3.0,2.0,5.0,2.0,5.0,6.0,5.0,6.0,5.0,3.0,2.0,5.0,2.0,5.0,1.0,2.0,1.0,5.0,7.0,4.0,2.0,6.0,6.0,5.0,7.0,2.0,0.75,1.0,1.25,0.25,1.5,0.8333333333333334,1.125,5.0,7.0,0.6090333333333333
P_1779090549319_6431,C1,1,No hedge + Text,0,0,No hedge,Text,completed,30,30,5.166666666666667,5.0,2.0,5.0,4.0,6.0,6.0,6.0,6.0,0.23333333333333334,0.6,0.4,0.8333333333333334,0.03333333333333333,0.13333333333333333,8.1632,5.497,0.14285714285714285,0.8095238095238095,0.8095238095238095,0.4444444444444444,0.1111111111111111,0.8888888888888888,P_1779090549319_6431_1779091360581.json,1,1,accepted,2,30,2,1779090549325,1779091359929,1779091359929,balanced,quota_balanced_round_robin,3.0,3.0,3.0,3.0,3.0,5.0,5.0,5.0,4.0,6.0,6.0,6.0,7.0,4.0,6.0,4.0,4.0,5.0,4.0,5.0,4.0,5.0,4.0,1.0,1.0,4.0,7.0,4.0,4.0,4.0,4.0,3.0,4.0,3.0,2.0,4.0,4.0,4.0,4.0,5.0,3.0,4.0,3.0,3.0,4.0,6.0,6.0,6.0,6.0,6.0,6.0,-0.16666666666666666,0.0,-0.25,-1.5,0.5,-0.25,0.08333333333333333,-0.875,6.0,6.0,1.6830666666666665
P_1779172064690_9702,C1,1,No hedge + Text,0,0,No hedge,Text,completed,30,30,5.5,2.1666666666666665,2.0,6.0,2.0,6.0,7.0,7.0,6.0,0.9666666666666667,0.6666666666666666,0.3333333333333333,0.9,0.03333333333333333,0.06666666666666667,38.23283333333333,24.880499999999998,1.0,0.9047619047619048,0.9047619047619048,0.8888888888888888,0.1111111111111111,0.8888888888888888,P_1779172064690_9702_1779174045037.json,1,1,accepted,2,30,2,1779172064693,1779174044995,1779174044995,balanced,quota_balanced_round_robin,1.0,1.0,1.0,1.0,1.0,5.0,4.0,4.0,4.0,4.0,4.0,6.0,2.0,1.0,1.0,1.0,1.0,1.0,4.0,4.0,3.0,3.0,4.0,4.0,4.0,4.0,4.0,4.0,4.0,4.0,6.0,4.0,4.0,4.0,4.0,4.0,4.0,4.0,2.0,6.0,2.0,4.0,4.0,4.0,2.0,6.0,7.0,7.0,6.0,6.0,4.0,0.0,1.25,0.25,0.0,0.0,1.0,0.75,0.125,6.0,4.0,16.424466666666667
P_1779176939113_327,C1,1,No hedge + Text,0,0,No hedge,Text,completed,30,30,3.5833333333333335,3.8333333333333335,5.0,6.0,5.0,6.0,6.0,5.0,5.0,0.2,0.8666666666666667,0.13333333333333333,0.7666666666666667,0.2,0.03333333333333333,4.824933333333333,3.157,0.23809523809523808,0.9523809523809523,0.9523809523809523,0.1111111111111111,0.6666666666666666,0.3333333333333333,P_1779176939113_327_1779177518957.json,1,1,accepted,2,30,2,1779176939116,1779177507697,1779177507697,balanced,quota_balanced_round_robin,4.0,4.0,6.0,5.0,2.0,4.0,3.0,2.0,4.0,4.0,3.0,4.0,4.0,1.0,6.0,4.0,4.0,4.0,4.0,4.0,5.0,3.0,4.0,4.0,4.0,5.0,2.0,4.0,5.0,4.0,4.0,4.0,4.0,4.0,4.0,4.0,4.0,4.0,4.0,4.0,2.0,4.0,5.0,3.0,5.0,6.0,6.0,5.0,5.0,4.0,6.0,-0.16666666666666666,0.25,-0.5,0.0,0.5,1.0,0.5833333333333334,-0.25,4.0,6.0,1.0626
P_1779182696586_3060,C1,1,No hedge + Text,0,0,No hedge,Text,completed,30,30,4.75,2.3333333333333335,2.0,6.0,5.0,6.0,7.0,7.0,5.0,0.4,0.7666666666666667,0.23333333333333334,0.9333333333333333,0.06666666666666667,0.0,7.635166666666667,4.473,0.3333333333333333,1.0,1.0,0.5555555555555556,0.2222222222222222,0.7777777777777778,P_1779182696586_3060_1779183549267.json,1,1,accepted,2,30,2,1779182696587,1779183549060,1779183549060,balanced,quota_balanced_round_robin,4.0,2.0,2.0,4.0,1.0,7.0,2.0,3.0,5.0,5.0,4.0,4.0,3.0,1.0,4.0,5.0,2.0,1.0,6.0,6.0,4.0,3.0,3.0,4.0,6.0,6.0,6.0,3.0,6.0,1.0,5.0,5.0,5.0,5.0,5.0,3.0,2.0,6.0,2.0,6.0,2.0,4.0,2.0,4.0,5.0,6.0,7.0,7.0,5.0,6.0,6.0,1.5,1.5,0.5,1.0,1.25,1.0,1.25,0.75,6.0,6.0,2.5876
P_1779183821928_8232,C1,1,No hedge + Text,0,0,No hedge,Text,completed,30,30,3.3333333333333335,2.3333333333333335,2.0,6.0,3.0,6.0,2.0,7.0,2.0,0.36666666666666664,0.6666666666666666,0.3333333333333333,0.7,0.13333333333333333,0.16666666666666666,7.571933333333334,5.1135,0.38095238095238093,0.7619047619047619,0.7619047619047619,0.3333333333333333,0.4444444444444444,0.5555555555555556,P_1779183821928_8232_1779184571536.json,1,1,accepted,2,30,2,1779183821930,1779184571123,1779184571123,balanced,quota_balanced_round_robin,5.0,2.0,4.0,5.0,6.0,3.0,5.0,2.0,4.0,4.0,2.0,2.0,2.0,2.0,2.0,6.0,5.0,1.0,5.0,2.0,2.0,2.0,2.0,3.0,5.0,2.0,4.0,2.0,6.0,3.0,5.0,4.0,3.0,5.0,3.0,2.0,3.0,6.0,2.0,5.0,5.0,3.0,3.0,6.0,3.0,6.0,2.0,7.0,2.0,6.0,6.0,0.8333333333333334,0.75,1.25,1.0,0.5,0.5,0.5833333333333334,1.125,6.0,6.0,2.2429
P_1779207302608_5437,C1,1,No hedge + Text,0,0,No hedge,Text,completed,30,30,2.25,5.0,2.0,7.0,7.0,7.0,1.0,7.0,4.0,0.0,0.6666666666666666,0.3333333333333333,0.9,0.03333333333333333,0.06666666666666667,3.917333333333333,3.2874999999999996,0.0,0.9047619047619048,0.9047619047619048,0.0,0.1111111111111111,0.8888888888888888,P_1779207302608_5437_1779207764297.json,1,1,accepted,2,30,2,1779207302612,1779207762806,1779207762806,balanced,quota_balanced_round_robin,7.0,3.0,6.0,7.0,7.0,1.0,1.0,1.0,7.0,1.0,1.0,5.0,3.0,2.0,7.0,1.0,4.0,7.0,1.0,4.0,4.0,4.0,4.0,1.0,1.0,3.0,7.0,6.0,4.0,7.0,4.0,1.0,4.0,1.0,7.0,7.0,5.0,1.0,4.0,4.0,4.0,7.0,5.0,4.0,7.0,7.0,1.0,7.0,4.0,5.0,4.0,-2.6666666666666665,0.0,-0.5,-2.25,-1.25,-1.5,-0.9166666666666666,-1.375,5.0,4.0,0.0
P_1779215379648_1170,C2,2,Hedge + Text,1,0,Hedge,Text,completed,30,30,3.5,4.166666666666667,7.0,2.0,7.0,1.0,4.0,5.0,6.0,0.16666666666666666,0.7333333333333333,0.26666666666666666,0.9666666666666667,0.03333333333333333,0.0,9.444766666666668,5.242,0.047619047619047616,1.0,1.0,0.4444444444444444,0.1111111111111111,0.8888888888888888,P_1779215379648_1170_1779216747933.json,1,1,accepted,2,30,2,1779215379650,1779216747336,1779216747336,balanced,quota_balanced_round_robin,4.0,4.0,6.0,5.0,4.0,3.0,2.0,5.0,5.0,3.0,3.0,4.0,2.0,2.0,6.0,2.0,4.0,5.0,3.0,3.0,5.0,6.0,5.0,3.0,2.0,6.0,2.0,2.0,5.0,5.0,5.0,2.0,2.0,3.0,6.0,4.0,6.0,3.0,6.0,2.0,2.0,6.0,1.0,3.0,7.0,1.0,4.0,5.0,6.0,6.0,2.0,-0.6666666666666666,-1.0,-0.5,-1.0,-0.25,0.25,-0.3333333333333333,-0.75,6.0,2.0,2.5118333333333336
P_1779215940859_8085,C1,1,No hedge + Text,0,0,No hedge,Text,completed,30,30,2.6666666666666665,4.0,1.0,7.0,1.0,7.0,3.0,7.0,5.0,0.6666666666666666,0.7666666666666667,0.23333333333333334,0.9333333333333333,0.06666666666666667,0.0,15.670800000000002,13.689,0.7142857142857143,1.0,1.0,0.5555555555555556,0.2222222222222222,0.7777777777777778,P_1779215940859_8085_1779217222081.json,1,1,accepted,2,30,2,1779215940861,1779217220134,1779217220134,balanced,quota_balanced_round_robin,6.0,3.0,5.0,5.0,6.0,2.0,2.0,2.0,2.0,2.0,2.0,5.0,5.0,1.0,2.0,2.0,5.0,5.0,2.0,4.0,5.0,2.0,6.0,4.0,4.0,2.0,3.0,4.0,2.0,6.0,6.0,5.0,5.0,4.0,5.0,4.0,1.0,5.0,1.0,6.0,2.0,3.0,4.0,5.0,1.0,7.0,3.0,7.0,5.0,5.0,2.0,-0.3333333333333333,1.75,0.25,-0.5,-0.5,1.5,0.9166666666666666,-0.125,5.0,2.0,6.5577
P_1779219582630_5218,C2,2,Hedge + Text,1,0,Hedge,Text,completed,30,30,3.9166666666666665,2.8333333333333335,6.0,3.0,6.0,2.0,4.0,6.0,6.0,0.6666666666666666,0.6,0.4,0.9,0.0,0.1,23.801233333333336,19.049,0.6666666666666666,0.8571428571428571,0.8571428571428571,0.6666666666666666,0.0,1.0,P_1779219582630_5218_1779221369563.json,1,1,accepted,2,30,2,1779219582631,1779221368526,1779221368526,balanced,quota_balanced_round_robin,4.0,4.0,4.0,4.0,3.0,4.0,3.0,2.0,4.0,4.0,4.0,5.0,3.0,1.0,1.0,2.0,2.0,4.0,5.0,6.0,4.0,2.0,3.0,5.0,6.0,4.0,2.0,4.0,6.0,1.0,6.0,6.0,4.0,6.0,2.0,4.0,4.0,6.0,1.0,6.0,2.0,4.0,2.0,5.0,6.0,2.0,4.0,6.0,6.0,5.0,6.0,1.6666666666666667,2.25,0.25,1.0,1.0,2.0,1.75,0.625,5.0,6.0,9.227133333333335
P_1779261096085_8629,C2,2,Hedge + Text,1,0,Hedge,Text,completed,30,30,2.5833333333333335,2.6666666666666665,2.0,6.0,5.0,6.0,5.0,6.0,6.0,0.16666666666666666,0.8,0.2,0.9,0.1,0.0,7.767933333333334,3.774,0.09523809523809523,1.0,1.0,0.3333333333333333,0.3333333333333333,0.6666666666666666,P_1779261096085_8629_1779261955997.json,1,1,accepted,2,30,2,1779261096089,1779261954309,1779261954309,balanced,quota_balanced_round_robin,3.0,4.0,4.0,4.0,5.0,4.0,1.0,1.0,1.0,1.0,2.0,1.0,2.0,2.0,1.0,1.0,2.0,2.0,4.0,5.0,2.0,2.0,2.0,4.0,4.0,3.0,4.0,4.0,4.0,4.0,3.0,5.0,5.0,5.0,5.0,2.0,2.0,2.0,3.0,5.0,1.0,4.0,2.0,4.0,5.0,6.0,5.0,6.0,6.0,5.0,6.0,0.6666666666666666,0.75,0.75,1.0,0.0,0.5,0.4166666666666667,0.875,5.0,6.0,1.2139333333333333
P_1779277265995_7963,C2,2,Hedge + Text,1,0,Hedge,Text,completed,30,30,4.416666666666667,4.0,5.0,6.0,6.0,5.0,5.0,5.0,6.0,0.5666666666666667,0.7,0.3,0.6666666666666666,0.16666666666666666,0.16666666666666666,5.9639999999999995,5.5975,0.5714285714285714,0.7619047619047619,0.7619047619047619,0.5555555555555556,0.5555555555555556,0.4444444444444444,P_1779277265995_7963_1779277741455.json,1,1,accepted,2,30,2,1779277265997,1779277740710,1779277740710,balanced,quota_balanced_round_robin,5.0,4.0,5.0,5.0,2.0,4.0,5.0,5.0,5.0,5.0,6.0,4.0,5.0,5.0,3.0,3.0,4.0,2.0,5.0,5.0,3.0,6.0,5.0,5.0,5.0,6.0,5.0,5.0,5.0,5.0,6.0,5.0,5.0,5.0,4.0,3.0,3.0,5.0,3.0,5.0,3.0,3.0,6.0,5.0,6.0,5.0,5.0,5.0,6.0,6.0,4.0,0.16666666666666666,0.5,0.5,0.5,1.0,0.5,0.6666666666666666,0.5,6.0,4.0,2.1713999999999998
P_1779277646495_3533,C1,1,No hedge + Text,0,0,No hedge,Text,completed,30,30,4.083333333333333,3.8333333333333335,4.0,4.0,4.0,4.0,4.0,5.0,3.0,0.1,0.8,0.2,0.7666666666666667,0.16666666666666666,0.06666666666666667,3.8258333333333336,2.866,0.047619047619047616,0.9047619047619048,0.9047619047619048,0.2222222222222222,0.5555555555555556,0.4444444444444444,P_1779277646495_3533_1779278135269.json,1,1,accepted,2,30,2,1779277646499,1779278134831,1779278134831,balanced,quota_balanced_round_robin,3.0,4.0,4.0,4.0,4.0,4.0,4.0,4.0,4.0,4.0,4.0,4.0,5.0,1.0,4.0,3.0,3.0,5.0,3.0,4.0,5.0,5.0,3.0,4.0,5.0,5.0,3.0,4.0,4.0,3.0,3.0,3.0,3.0,3.0,3.0,4.0,3.0,4.0,5.0,4.0,2.0,2.0,2.0,3.0,4.0,4.0,4.0,5.0,3.0,4.0,6.0,0.3333333333333333,-0.75,-0.75,0.5,0.75,0.75,0.25,-0.125,4.0,6.0,0.46066666666666667
P_1779278069429_8501,C1,1,No hedge + Text,0,0,No hedge,Text,completed,30,30,3.8333333333333335,3.6666666666666665,2.0,5.0,5.0,7.0,2.0,3.0,6.0,0.23333333333333334,0.7666666666666667,0.23333333333333334,0.8,0.13333333333333333,0.06666666666666667,5.778899999999999,4.157,0.2857142857142857,0.9047619047619048,0.9047619047619048,0.1111111111111111,0.4444444444444444,0.5555555555555556,P_1779278069429_8501_1779278571305.json,1,1,accepted,2,30,2,1779278069433,1779278570814,1779278570814,balanced,quota_balanced_round_robin,3.0,3.0,5.0,5.0,3.0,3.0,4.0,2.0,6.0,4.0,4.0,2.0,5.0,1.0,4.0,5.0,5.0,4.0,6.0,6.0,2.0,4.0,2.0,4.0,4.0,3.0,5.0,4.0,5.0,3.0,4.0,5.0,3.0,4.0,3.0,4.0,2.0,3.0,4.0,3.0,5.0,4.0,3.0,4.0,5.0,7.0,2.0,3.0,6.0,4.0,2.0,0.8333333333333334,0.5,0.25,0.5,0.75,-1.0,0.08333333333333333,0.375,4.0,2.0,1.3036999999999999
P_1779283269623_1252,C1,1,No hedge + Text,0,0,No hedge,Text,completed,30,30,4.916666666666667,3.1666666666666665,2.0,6.0,2.0,6.0,6.0,4.0,5.0,0.13333333333333333,0.6666666666666666,0.3333333333333333,0.9,0.03333333333333333,0.06666666666666667,15.645333333333333,10.0175,0.14285714285714285,0.9047619047619048,0.9047619047619048,0.1111111111111111,0.1111111111111111,0.8888888888888888,P_1779283269623_1252_1779284472384.json,1,1,accepted,2,30,2,1779283269626,1779284473468,1779284473468,balanced,quota_balanced_round_robin,2.0,4.0,2.0,2.0,1.0,4.0,3.0,5.0,3.0,5.0,5.0,5.0,4.0,1.0,5.0,5.0,4.0,2.0,2.0,6.0,4.0,1.0,3.0,4.0,4.0,5.0,2.0,3.0,5.0,3.0,6.0,5.0,4.0,5.0,4.0,4.0,3.0,5.0,2.0,5.0,3.0,3.0,2.0,5.0,2.0,6.0,6.0,4.0,5.0,5.0,5.0,0.6666666666666666,2.25,0.5,0.25,0.75,1.25,1.4166666666666667,0.375,5.0,5.0,2.5069999999999997
