participant_id,condition,condition_order,condition_label,hedging,modality,hedging_label,modality_label,item_id,block,trial_index,correctness,correct_answer,incorrect_answer,verified,accepted,rejected,final_accuracy,overreliance_error,underreliance_error,decision_time_sec,evidence_dwell_time_sec,hedge_phrase,hedge_type,verification_mode,question,displayed_answer,final_decision,verify_clicked,verify_count,evidence_opened,decision_time_ms,evidence_dwell_time_ms,source_count_available,source_open_count,source_opened_domains,source_opened_urls,voice_enabled,voice_lang,trust_score_mean,nasa_tlx_raw_mean,manipulation_uncertainty,manipulation_certainty,posttask_perceived_uncertainty,posttask_perceived_certainty,posttask_perceived_reliability
P_1778665385732_378,C3,3,No hedge + Speech,0,1,No hedge,Speech,Q11,1,2,1,1,0,0,1,0,1,0,0,6.022,0.0,,none,none,An ecology question asks: What product is synthesized by bees through the enzymatic processing of nectar?,Bees synthesize honey through enzymatic processing and evaporation of nectar.,1,0,0,0,6022,0,1,0,,,1,en-US,3.9166666666666665,3.8333333333333335,4.0,5.0,4.0,3.0,5.0
P_1778665385732_378,C3,3,No hedge + Speech,0,1,No hedge,Speech,Q13,1,7,0,0,1,1,0,1,1,0,0,38.436,23.944,,none,evidence_panel,A chemistry student asks: What is the atomic number of oxygen?,"The atomic number of oxygen is 16, which reflects the number of protons in its nucleus.",0,1,1,1,38436,23944,1,0,,,1,en-US,3.9166666666666665,3.8333333333333335,4.0,5.0,4.0,3.0,5.0
P_1778665385732_378,C3,3,No hedge + Speech,0,1,No hedge,Speech,Q09,1,5,0,0,1,0,0,1,1,0,0,6.315,0.0,,none,none,A biology question asks: Which biochemical process enables plants to convert solar energy into stored chemical energy?,Cellular respiration enables plants to convert solar energy directly into stored chemical energy in the form of glucose.,0,0,0,0,6315,0,1,0,,,1,en-US,3.9166666666666665,3.8333333333333335,4.0,5.0,4.0,3.0,5.0
P_1778665385732_378,C3,3,No hedge + Speech,0,1,No hedge,Speech,Q04,1,1,1,1,0,0,0,1,0,0,1,8.145,0.0,,none,none,A geography question asks: Which sovereign state designates Amsterdam as its constitutional capital while government functions are elsewhere?,"The Netherlands designates Amsterdam as its constitutional capital, even though many government functions occur in The Hague.",0,0,0,0,8145,0,1,0,,,1,en-US,3.9166666666666665,3.8333333333333335,4.0,5.0,4.0,3.0,5.0
P_1778665385732_378,C3,3,No hedge + Speech,0,1,No hedge,Speech,Q25,1,4,0,0,1,0,0,1,1,0,0,4.385,0.0,,none,none,An environmental science question asks: Which gas do plants absorb from the atmosphere for photosynthesis?,Plants absorb oxygen from the atmosphere for photosynthesis.,0,0,0,0,4385,0,2,0,,,1,en-US,3.9166666666666665,3.8333333333333335,4.0,5.0,4.0,3.0,5.0
P_1778665385732_378,C3,3,No hedge + Speech,0,1,No hedge,Speech,Q27,1,9,1,1,0,1,0,1,0,0,1,16.839,7.641,,none,evidence_panel,A world history question asks: Which empire is most strongly associated with the city of Rome as its political center in antiquity?,The Roman Empire is most strongly associated with Rome as its political center in antiquity.,0,1,1,1,16839,7641,1,0,,,1,en-US,3.9166666666666665,3.8333333333333335,4.0,5.0,4.0,3.0,5.0
P_1778665385732_378,C3,3,No hedge + Speech,0,1,No hedge,Speech,Q07,1,8,1,1,0,1,1,0,1,0,0,14.917,7.912,,none,evidence_panel,A planetary science question asks: Which planet dominates the solar system in terms of mass?,"Jupiter dominates the solar system in terms of mass, containing more mass than all other planets combined.",1,1,1,1,14917,7912,1,0,,,1,en-US,3.9166666666666665,3.8333333333333335,4.0,5.0,4.0,3.0,5.0
P_1778665385732_378,C3,3,No hedge + Speech,0,1,No hedge,Speech,Q28,1,3,1,1,0,0,1,0,1,0,0,4.425,0.0,,none,none,A meteorology question asks: What instrument is commonly used to measure atmospheric pressure?,A barometer is commonly used to measure atmospheric pressure.,1,0,0,0,4425,0,1,0,,,1,en-US,3.9166666666666665,3.8333333333333335,4.0,5.0,4.0,3.0,5.0
P_1778665385732_378,C3,3,No hedge + Speech,0,1,No hedge,Speech,Q22,1,6,1,1,0,0,1,0,1,0,0,2.604,0.0,,none,none,A civics question asks: Which institution typically interprets the constitution in the United States at the highest judicial level?,The Supreme Court typically interprets the Constitution at the highest judicial level in the United States.,1,0,0,0,2604,0,1,0,,,1,en-US,3.9166666666666665,3.8333333333333335,4.0,5.0,4.0,3.0,5.0
P_1778665385732_378,C3,3,No hedge + Speech,0,1,No hedge,Speech,Q26,1,10,1,1,0,0,0,1,0,0,1,9.103,0.0,,none,none,A statistics question asks: What value is typically used to represent the probability of an impossible event?,An impossible event is represented by a probability of 0.,0,0,0,0,9103,0,1,0,,,1,en-US,3.9166666666666665,3.8333333333333335,4.0,5.0,4.0,3.0,5.0
P_1778665385732_378,C3,3,No hedge + Speech,0,1,No hedge,Speech,Q02,2,13,0,0,1,1,0,1,1,0,0,22.903,16.0,,none,evidence_panel,A historian asks: Which figure is most widely credited with initiating sustained European contact with the Americas in 1492?,Amerigo Vespucci is most widely credited in mainstream historical narratives with initiating sustained European contact with the Americas in 1492.,0,1,1,1,22903,16000,1,0,,,1,en-US,3.9166666666666665,3.8333333333333335,4.0,5.0,4.0,3.0,5.0
P_1778665385732_378,C3,3,No hedge + Speech,0,1,No hedge,Speech,Q10,2,14,1,1,0,1,0,1,0,0,1,13.272,5.647,,none,evidence_panel,A navigation question asks: Which ocean must be crossed when traveling westward from California to Japan?,Traveling westward from California to Japan requires crossing the Pacific Ocean.,0,1,1,1,13272,5647,1,0,,,1,en-US,3.9166666666666665,3.8333333333333335,4.0,5.0,4.0,3.0,5.0
P_1778665385732_378,C3,3,No hedge + Speech,0,1,No hedge,Speech,Q14,2,15,1,1,0,1,1,0,1,0,0,20.303,13.041,,none,evidence_panel,A legal studies student asks: Which document begins with the phrase 'We the People' in the United States?,The Constitution of the United States begins with the phrase 'We the People' in its preamble.,1,1,1,1,20303,13041,1,0,,,1,en-US,3.9166666666666665,3.8333333333333335,4.0,5.0,4.0,3.0,5.0
P_1778665385732_378,C3,3,No hedge + Speech,0,1,No hedge,Speech,Q29,2,18,0,0,1,0,0,1,1,0,0,4.375,0.0,,none,none,A transport question asks: How many wheels does a standard bicycle have?,A standard bicycle has 3 wheels.,0,0,0,0,4375,0,1,0,,,1,en-US,3.9166666666666665,3.8333333333333335,4.0,5.0,4.0,3.0,5.0
P_1778665385732_378,C3,3,No hedge + Speech,0,1,No hedge,Speech,Q30,2,11,1,1,0,1,1,0,1,0,0,10.116,3.808,,none,evidence_panel,A philosophy question asks: Which ancient philosopher is most strongly associated with the method of questioning known as the Socratic method?,Socrates is most strongly associated with the method of questioning known as the Socratic method.,1,1,1,1,10116,3808,1,0,,,1,en-US,3.9166666666666665,3.8333333333333335,4.0,5.0,4.0,3.0,5.0
P_1778665385732_378,C3,3,No hedge + Speech,0,1,No hedge,Speech,Q15,2,12,0,0,1,1,0,1,1,0,0,14.684,9.86,,none,evidence_panel,A geology question asks: Which type of rock forms through the cooling and solidification of magma or lava?,Metamorphic rock forms through the cooling and solidification of magma or lava.,0,1,1,1,14684,9860,2,0,,,1,en-US,3.9166666666666665,3.8333333333333335,4.0,5.0,4.0,3.0,5.0
P_1778665385732_378,C3,3,No hedge + Speech,0,1,No hedge,Speech,Q19,2,19,1,1,0,0,1,0,1,0,0,2.035,0.0,,none,none,A public health question asks: Which organ is primarily responsible for pumping blood through the human body?,The heart is the organ primarily responsible for pumping blood through the human body.,1,0,0,0,2035,0,1,0,,,1,en-US,3.9166666666666665,3.8333333333333335,4.0,5.0,4.0,3.0,5.0
P_1778665385732_378,C3,3,No hedge + Speech,0,1,No hedge,Speech,Q21,2,16,1,1,0,1,1,0,1,0,0,20.374,8.406,,none,evidence_panel,An economics question asks: What is inflation generally understood to describe?,Inflation generally describes a sustained increase in the overall price level of goods and services.,1,1,1,1,20374,8406,1,0,,,1,en-US,3.9166666666666665,3.8333333333333335,4.0,5.0,4.0,3.0,5.0
P_1778665385732_378,C3,3,No hedge + Speech,0,1,No hedge,Speech,Q17,2,17,1,1,0,1,1,0,1,0,0,18.183,11.018,,none,evidence_panel,A history of science question asks: Which scientist is most closely associated with the laws of motion in classical mechanics?,Isaac Newton is most closely associated with the laws of motion in classical mechanics.,1,1,1,1,18183,11018,1,0,,,1,en-US,3.9166666666666665,3.8333333333333335,4.0,5.0,4.0,3.0,5.0
P_1778665385732_378,C3,3,No hedge + Speech,0,1,No hedge,Speech,Q01,2,20,1,1,0,0,1,0,1,0,0,2.095,0.0,,none,none,"A policy analyst asks: Which city functions as the de facto seat of government in France, even if constitutional phrasing differs?","Paris functions as the de facto seat of government in France, as it hosts the executive, legislative, and key administrative institutions where national decision making occurs.",1,0,0,0,2095,0,1,0,,,1,en-US,3.9166666666666665,3.8333333333333335,4.0,5.0,4.0,3.0,5.0
P_1778665385732_378,C3,3,No hedge + Speech,0,1,No hedge,Speech,Q23,3,23,0,0,1,1,0,1,1,0,0,12.554,6.158,,none,evidence_panel,A cartography question asks: Approximately how many continents are commonly recognized in the standard school model?,The standard school model commonly recognizes 6 continents.,0,1,1,1,12554,6158,1,0,,,1,en-US,3.9166666666666665,3.8333333333333335,4.0,5.0,4.0,3.0,5.0
P_1778665385732_378,C3,3,No hedge + Speech,0,1,No hedge,Speech,Q16,3,29,1,1,0,1,1,0,1,0,0,21.239,16.05,,none,evidence_panel,A mathematics question asks: How many degrees are in the interior angles of a triangle in Euclidean geometry?,The interior angles of a triangle sum to 180 degrees in Euclidean geometry.,1,1,1,1,21239,16050,1,0,,,1,en-US,3.9166666666666665,3.8333333333333335,4.0,5.0,4.0,3.0,5.0
P_1778665385732_378,C3,3,No hedge + Speech,0,1,No hedge,Speech,Q12,3,27,1,1,0,0,1,0,1,0,0,4.281,0.0,,none,none,A literature question asks: Which playwright is academically attributed as the author of Hamlet?,William Shakespeare is academically attributed as the author of Hamlet based on historical and textual scholarship.,1,0,0,0,4281,0,1,0,,,1,en-US,3.9166666666666665,3.8333333333333335,4.0,5.0,4.0,3.0,5.0
P_1778665385732_378,C3,3,No hedge + Speech,0,1,No hedge,Speech,Q06,3,24,0,0,1,1,0,1,1,0,0,17.295,10.219,,none,evidence_panel,An astronomy question asks: What duration corresponds to one full solar day on Earth?,One full solar day corresponds to about 23 hours and 56 minutes.,0,1,1,1,17295,10219,1,0,,,1,en-US,3.9166666666666665,3.8333333333333335,4.0,5.0,4.0,3.0,5.0
P_1778665385732_378,C3,3,No hedge + Speech,0,1,No hedge,Speech,Q20,3,30,1,1,0,0,1,0,1,0,0,3.475,0.0,,none,none,"A computer science question asks: In binary notation, how many distinct symbols are used?","Binary notation uses 2 distinct symbols, typically 0 and 1.",1,0,0,0,3475,0,1,0,,,1,en-US,3.9166666666666665,3.8333333333333335,4.0,5.0,4.0,3.0,5.0
P_1778665385732_378,C3,3,No hedge + Speech,0,1,No hedge,Speech,Q03,3,25,1,1,0,1,1,0,1,0,0,13.27,6.854,,none,evidence_panel,"A physics student asks: Under standard atmospheric pressure, at what temperature does pure water undergo a phase transition to gas?","Under standard atmospheric pressure, water undergoes a phase transition to gas at 100 degrees Celsius.",1,1,1,1,13270,6854,1,0,,,1,en-US,3.9166666666666665,3.8333333333333335,4.0,5.0,4.0,3.0,5.0
P_1778665385732_378,C3,3,No hedge + Speech,0,1,No hedge,Speech,Q24,3,21,1,1,0,1,1,0,1,0,0,7.064,3.083,,none,evidence_panel,A music history question asks: Which composer is most closely associated with the Ninth Symphony that includes the 'Ode to Joy'?,Ludwig van Beethoven is most closely associated with the Ninth Symphony containing the 'Ode to Joy'.,1,1,1,1,7064,3083,1,0,,,1,en-US,3.9166666666666665,3.8333333333333335,4.0,5.0,4.0,3.0,5.0
P_1778665385732_378,C3,3,No hedge + Speech,0,1,No hedge,Speech,Q08,3,26,0,0,1,1,0,1,1,0,0,10.141,4.674,,none,evidence_panel,A political science question asks: Who was the first individual to hold the office of President of the United States under the current constitution?,John Adams was the first individual to hold the office of President of the United States under the current constitution.,0,1,1,1,10141,4674,1,0,,,1,en-US,3.9166666666666665,3.8333333333333335,4.0,5.0,4.0,3.0,5.0
P_1778665385732_378,C3,3,No hedge + Speech,0,1,No hedge,Speech,Q18,3,28,1,1,0,1,1,0,1,0,0,8.803,3.278,,none,evidence_panel,A linguistics question asks: Which language family does Spanish belong to?,Spanish belongs to the Romance language family.,1,1,1,1,8803,3278,1,0,,,1,en-US,3.9166666666666665,3.8333333333333335,4.0,5.0,4.0,3.0,5.0
P_1778665385732_378,C3,3,No hedge + Speech,0,1,No hedge,Speech,Q05,3,22,1,1,0,0,1,0,1,0,0,4.414,0.0,,none,none,A biology exam asks: What is the primary informational role of DNA within a cell?,"DNA primarily functions as a storage medium for genetic information, encoding instructions required for cellular structure and function.",1,0,0,0,4414,0,2,0,,,1,en-US,3.9166666666666665,3.8333333333333335,4.0,5.0,4.0,3.0,5.0
P_1778665895081_9117,C1,1,No hedge + Text,0,0,No hedge,Text,Q11,1,2,1,1,0,0,1,0,1,0,0,4.599,0.0,,none,none,An ecology question asks: What product is synthesized by bees through the enzymatic processing of nectar?,Bees synthesize honey through enzymatic processing and evaporation of nectar.,1,0,0,0,4599,0,1,0,,,0,,5.166666666666667,2.5,2.0,6.0,5.0,5.0,6.0
P_1778665895081_9117,C1,1,No hedge + Text,0,0,No hedge,Text,Q03,1,6,1,1,0,0,1,0,1,0,0,2.698,0.0,,none,none,"A physics student asks: Under standard atmospheric pressure, at what temperature does pure water undergo a phase transition to gas?","Under standard atmospheric pressure, water undergoes a phase transition to gas at 100 degrees Celsius.",1,0,0,0,2698,0,1,0,,,0,,5.166666666666667,2.5,2.0,6.0,5.0,5.0,6.0
P_1778665895081_9117,C1,1,No hedge + Text,0,0,No hedge,Text,Q06,1,4,0,0,1,0,0,1,1,0,0,2.715,0.0,,none,none,An astronomy question asks: What duration corresponds to one full solar day on Earth?,One full solar day corresponds to about 23 hours and 56 minutes.,0,0,0,0,2715,0,1,0,,,0,,5.166666666666667,2.5,2.0,6.0,5.0,5.0,6.0
P_1778665895081_9117,C1,1,No hedge + Text,0,0,No hedge,Text,Q04,1,5,1,1,0,0,1,0,1,0,0,3.282,0.0,,none,none,A geography question asks: Which sovereign state designates Amsterdam as its constitutional capital while government functions are elsewhere?,"The Netherlands designates Amsterdam as its constitutional capital, even though many government functions occur in The Hague.",1,0,0,0,3282,0,1,0,,,0,,5.166666666666667,2.5,2.0,6.0,5.0,5.0,6.0
P_1778665895081_9117,C1,1,No hedge + Text,0,0,No hedge,Text,Q07,1,1,1,1,0,0,0,1,0,0,1,2.199,0.0,,none,none,A planetary science question asks: Which planet dominates the solar system in terms of mass?,"Jupiter dominates the solar system in terms of mass, containing more mass than all other planets combined.",0,0,0,0,2199,0,1,0,,,0,,5.166666666666667,2.5,2.0,6.0,5.0,5.0,6.0
P_1778665895081_9117,C1,1,No hedge + Text,0,0,No hedge,Text,Q21,1,9,1,1,0,0,1,0,1,0,0,3.534,0.0,,none,none,An economics question asks: What is inflation generally understood to describe?,Inflation generally describes a sustained increase in the overall price level of goods and services.,1,0,0,0,3534,0,1,0,,,0,,5.166666666666667,2.5,2.0,6.0,5.0,5.0,6.0
P_1778665895081_9117,C1,1,No hedge + Text,0,0,No hedge,Text,Q28,1,7,1,1,0,1,1,0,1,0,0,10.683,5.721,,none,evidence_panel,A meteorology question asks: What instrument is commonly used to measure atmospheric pressure?,A barometer is commonly used to measure atmospheric pressure.,1,1,1,1,10683,5721,1,0,,,0,,5.166666666666667,2.5,2.0,6.0,5.0,5.0,6.0
P_1778665895081_9117,C1,1,No hedge + Text,0,0,No hedge,Text,Q27,1,8,0,0,1,0,0,1,1,0,0,2.999,0.0,,none,none,A world history question asks: Which empire is most strongly associated with the city of Rome as its political center in antiquity?,The Byzantine Empire is most strongly associated with Rome as its political center in antiquity.,0,0,0,0,2999,0,1,0,,,0,,5.166666666666667,2.5,2.0,6.0,5.0,5.0,6.0
P_1778665895081_9117,C1,1,No hedge + Text,0,0,No hedge,Text,Q29,1,10,1,1,0,0,1,0,1,0,0,2.247,0.0,,none,none,A transport question asks: How many wheels does a standard bicycle have?,A standard bicycle has 2 wheels.,1,0,0,0,2247,0,1,0,,,0,,5.166666666666667,2.5,2.0,6.0,5.0,5.0,6.0
P_1778665895081_9117,C1,1,No hedge + Text,0,0,No hedge,Text,Q22,1,3,0,0,1,0,1,0,0,1,0,3.314,0.0,,none,none,A civics question asks: Which institution typically interprets the constitution in the United States at the highest judicial level?,Congress typically interprets the Constitution at the highest judicial level in the United States.,1,0,0,0,3314,0,1,0,,,0,,5.166666666666667,2.5,2.0,6.0,5.0,5.0,6.0
P_1778665895081_9117,C1,1,No hedge + Text,0,0,No hedge,Text,Q14,2,14,1,1,0,0,1,0,1,0,0,1.999,0.0,,none,none,A legal studies student asks: Which document begins with the phrase 'We the People' in the United States?,The Constitution of the United States begins with the phrase 'We the People' in its preamble.,1,0,0,0,1999,0,1,0,,,0,,5.166666666666667,2.5,2.0,6.0,5.0,5.0,6.0
P_1778665895081_9117,C1,1,No hedge + Text,0,0,No hedge,Text,Q24,2,18,1,1,0,0,1,0,1,0,0,3.215,0.0,,none,none,A music history question asks: Which composer is most closely associated with the Ninth Symphony that includes the 'Ode to Joy'?,Ludwig van Beethoven is most closely associated with the Ninth Symphony containing the 'Ode to Joy'.,1,0,0,0,3215,0,1,0,,,0,,5.166666666666667,2.5,2.0,6.0,5.0,5.0,6.0
P_1778665895081_9117,C1,1,No hedge + Text,0,0,No hedge,Text,Q09,2,17,0,0,1,1,1,0,0,1,0,16.733,6.353,,none,evidence_panel,A biology question asks: Which biochemical process enables plants to convert solar energy into stored chemical energy?,Cellular respiration enables plants to convert solar energy directly into stored chemical energy in the form of glucose.,1,1,1,1,16733,6353,1,0,,,0,,5.166666666666667,2.5,2.0,6.0,5.0,5.0,6.0
P_1778665895081_9117,C1,1,No hedge + Text,0,0,No hedge,Text,Q05,2,11,1,1,0,0,1,0,1,0,0,3.115,0.0,,none,none,A biology exam asks: What is the primary informational role of DNA within a cell?,"DNA primarily functions as a storage medium for genetic information, encoding instructions required for cellular structure and function.",1,0,0,0,3115,0,2,0,,,0,,5.166666666666667,2.5,2.0,6.0,5.0,5.0,6.0
P_1778665895081_9117,C1,1,No hedge + Text,0,0,No hedge,Text,Q23,2,19,0,0,1,1,0,1,1,0,0,6.234,2.23,,none,evidence_panel,A cartography question asks: Approximately how many continents are commonly recognized in the standard school model?,The standard school model commonly recognizes 6 continents.,0,1,1,1,6234,2230,1,0,,,0,,5.166666666666667,2.5,2.0,6.0,5.0,5.0,6.0
P_1778665895081_9117,C1,1,No hedge + Text,0,0,No hedge,Text,Q02,2,15,1,1,0,0,1,0,1,0,0,1.781,0.0,,none,none,A historian asks: Which figure is most widely credited with initiating sustained European contact with the Americas in 1492?,Christopher Columbus is most widely credited in mainstream historical narratives with initiating sustained European contact with the Americas in 1492.,1,0,0,0,1781,0,1,0,,,0,,5.166666666666667,2.5,2.0,6.0,5.0,5.0,6.0
P_1778665895081_9117,C1,1,No hedge + Text,0,0,No hedge,Text,Q17,2,13,0,0,1,1,0,1,1,0,0,11.065,4.971,,none,evidence_panel,A history of science question asks: Which scientist is most closely associated with the laws of motion in classical mechanics?,Galileo Galilei is most closely associated with the complete laws of motion in classical mechanics.,0,1,1,1,11065,4971,1,0,,,0,,5.166666666666667,2.5,2.0,6.0,5.0,5.0,6.0
P_1778665895081_9117,C1,1,No hedge + Text,0,0,No hedge,Text,Q13,2,16,1,1,0,0,1,0,1,0,0,1.581,0.0,,none,none,A chemistry student asks: What is the atomic number of oxygen?,"The atomic number of oxygen is 8, which reflects the number of protons in its nucleus.",1,0,0,0,1581,0,1,0,,,0,,5.166666666666667,2.5,2.0,6.0,5.0,5.0,6.0
P_1778665895081_9117,C1,1,No hedge + Text,0,0,No hedge,Text,Q08,2,20,1,1,0,0,1,0,1,0,0,3.199,0.0,,none,none,A political science question asks: Who was the first individual to hold the office of President of the United States under the current constitution?,George Washington was the first individual to hold the office of President of the United States under the current constitution.,1,0,0,0,3199,0,1,0,,,0,,5.166666666666667,2.5,2.0,6.0,5.0,5.0,6.0
P_1778665895081_9117,C1,1,No hedge + Text,0,0,No hedge,Text,Q30,2,12,1,1,0,0,1,0,1,0,0,1.75,0.0,,none,none,A philosophy question asks: Which ancient philosopher is most strongly associated with the method of questioning known as the Socratic method?,Socrates is most strongly associated with the method of questioning known as the Socratic method.,1,0,0,0,1750,0,1,0,,,0,,5.166666666666667,2.5,2.0,6.0,5.0,5.0,6.0
P_1778665895081_9117,C1,1,No hedge + Text,0,0,No hedge,Text,Q16,3,22,1,1,0,0,1,0,1,0,0,1.915,0.0,,none,none,A mathematics question asks: How many degrees are in the interior angles of a triangle in Euclidean geometry?,The interior angles of a triangle sum to 180 degrees in Euclidean geometry.,1,0,0,0,1915,0,1,0,,,0,,5.166666666666667,2.5,2.0,6.0,5.0,5.0,6.0
P_1778665895081_9117,C1,1,No hedge + Text,0,0,No hedge,Text,Q25,3,30,1,1,0,0,1,0,1,0,0,3.681,0.0,,none,none,An environmental science question asks: Which gas do plants absorb from the atmosphere for photosynthesis?,Plants absorb carbon dioxide from the atmosphere for photosynthesis.,1,0,0,0,3681,0,2,0,,,0,,5.166666666666667,2.5,2.0,6.0,5.0,5.0,6.0
P_1778665895081_9117,C1,1,No hedge + Text,0,0,No hedge,Text,Q15,3,26,1,1,0,0,1,0,1,0,0,3.032,0.0,,none,none,A geology question asks: Which type of rock forms through the cooling and solidification of magma or lava?,Igneous rock forms through the cooling and solidification of magma or lava.,1,0,0,0,3032,0,2,0,,,0,,5.166666666666667,2.5,2.0,6.0,5.0,5.0,6.0
P_1778665895081_9117,C1,1,No hedge + Text,0,0,No hedge,Text,Q18,3,25,1,1,0,0,1,0,1,0,0,1.832,0.0,,none,none,A linguistics question asks: Which language family does Spanish belong to?,Spanish belongs to the Romance language family.,1,0,0,0,1832,0,1,0,,,0,,5.166666666666667,2.5,2.0,6.0,5.0,5.0,6.0
P_1778665895081_9117,C1,1,No hedge + Text,0,0,No hedge,Text,Q26,3,28,0,0,1,0,0,1,1,0,0,2.366,0.0,,none,none,A statistics question asks: What value is typically used to represent the probability of an impossible event?,An impossible event is represented by a probability of 0.5.,0,0,0,0,2366,0,1,0,,,0,,5.166666666666667,2.5,2.0,6.0,5.0,5.0,6.0
P_1778665895081_9117,C1,1,No hedge + Text,0,0,No hedge,Text,Q10,3,27,1,1,0,0,1,0,1,0,0,2.714,0.0,,none,none,A navigation question asks: Which ocean must be crossed when traveling westward from California to Japan?,Traveling westward from California to Japan requires crossing the Pacific Ocean.,1,0,0,0,2714,0,1,0,,,0,,5.166666666666667,2.5,2.0,6.0,5.0,5.0,6.0
P_1778665895081_9117,C1,1,No hedge + Text,0,0,No hedge,Text,Q12,3,21,0,0,1,0,0,1,1,0,0,2.382,0.0,,none,none,A literature question asks: Which playwright is academically attributed as the author of Hamlet?,Christopher Marlowe is academically attributed as the author of Hamlet based on historical and textual scholarship.,0,0,0,0,2382,0,1,0,,,0,,5.166666666666667,2.5,2.0,6.0,5.0,5.0,6.0
P_1778665895081_9117,C1,1,No hedge + Text,0,0,No hedge,Text,Q20,3,23,0,0,1,0,0,1,1,0,0,2.481,0.0,,none,none,"A computer science question asks: In binary notation, how many distinct symbols are used?","Binary notation uses 3 distinct symbols, typically 0, 1, and 2.",0,0,0,0,2481,0,1,0,,,0,,5.166666666666667,2.5,2.0,6.0,5.0,5.0,6.0
P_1778665895081_9117,C1,1,No hedge + Text,0,0,No hedge,Text,Q01,3,29,1,1,0,1,1,0,1,0,0,12.598,7.073,,none,evidence_panel,"A policy analyst asks: Which city functions as the de facto seat of government in France, even if constitutional phrasing differs?","Paris functions as the de facto seat of government in France, as it hosts the executive, legislative, and key administrative institutions where national decision making occurs.",1,1,1,1,12598,7073,1,0,,,0,,5.166666666666667,2.5,2.0,6.0,5.0,5.0,6.0
P_1778665895081_9117,C1,1,No hedge + Text,0,0,No hedge,Text,Q19,3,24,1,1,0,0,1,0,1,0,0,1.832,0.0,,none,none,A public health question asks: Which organ is primarily responsible for pumping blood through the human body?,The heart is the organ primarily responsible for pumping blood through the human body.,1,0,0,0,1832,0,1,0,,,0,,5.166666666666667,2.5,2.0,6.0,5.0,5.0,6.0
P_1778667060449_6321,C1,1,No hedge + Text,0,0,No hedge,Text,Q20,1,8,1,1,0,0,1,0,1,0,0,2.58,0.0,,none,none,"A computer science question asks: In binary notation, how many distinct symbols are used?","Binary notation uses 2 distinct symbols, typically 0 and 1.",1,0,0,0,2580,0,1,0,,,0,,3.5,4.0,3.0,4.0,1.0,4.0,2.0
P_1778667060449_6321,C1,1,No hedge + Text,0,0,No hedge,Text,Q09,1,9,1,1,0,0,1,0,1,0,0,6.771,0.0,,none,none,A biology question asks: Which biochemical process enables plants to convert solar energy into stored chemical energy?,Photosynthesis enables plants to convert solar energy into stored chemical energy in the form of glucose.,1,0,0,0,6771,0,1,0,,,0,,3.5,4.0,3.0,4.0,1.0,4.0,2.0
P_1778667060449_6321,C1,1,No hedge + Text,0,0,No hedge,Text,Q29,1,10,1,1,0,0,1,0,1,0,0,3.602,0.0,,none,none,A transport question asks: How many wheels does a standard bicycle have?,A standard bicycle has 2 wheels.,1,0,0,0,3602,0,1,0,,,0,,3.5,4.0,3.0,4.0,1.0,4.0,2.0
P_1778667060449_6321,C1,1,No hedge + Text,0,0,No hedge,Text,Q08,1,7,1,1,0,0,1,0,1,0,0,3.337,0.0,,none,none,A political science question asks: Who was the first individual to hold the office of President of the United States under the current constitution?,George Washington was the first individual to hold the office of President of the United States under the current constitution.,1,0,0,0,3337,0,1,0,,,0,,3.5,4.0,3.0,4.0,1.0,4.0,2.0
P_1778667060449_6321,C1,1,No hedge + Text,0,0,No hedge,Text,Q04,1,2,0,0,1,1,0,1,1,0,0,14.456,7.821,,none,evidence_panel,A geography question asks: Which sovereign state designates Amsterdam as its constitutional capital while government functions are elsewhere?,Luxembourg designates Amsterdam as its constitutional capital while government functions are elsewhere.,0,1,1,1,14456,7821,1,0,,,0,,3.5,4.0,3.0,4.0,1.0,4.0,2.0
P_1778667060449_6321,C1,1,No hedge + Text,0,0,No hedge,Text,Q27,1,5,0,0,1,0,0,1,1,0,0,5.235,0.0,,none,none,A world history question asks: Which empire is most strongly associated with the city of Rome as its political center in antiquity?,The Byzantine Empire is most strongly associated with Rome as its political center in antiquity.,0,0,0,0,5235,0,1,0,,,0,,3.5,4.0,3.0,4.0,1.0,4.0,2.0
P_1778667060449_6321,C1,1,No hedge + Text,0,0,No hedge,Text,Q17,1,4,1,1,0,0,1,0,1,0,0,1.688,0.0,,none,none,A history of science question asks: Which scientist is most closely associated with the laws of motion in classical mechanics?,Isaac Newton is most closely associated with the laws of motion in classical mechanics.,1,0,0,0,1688,0,1,0,,,0,,3.5,4.0,3.0,4.0,1.0,4.0,2.0
P_1778667060449_6321,C1,1,No hedge + Text,0,0,No hedge,Text,Q28,1,1,0,0,1,1,0,1,1,0,0,27.052,11.647,,none,evidence_panel,A meteorology question asks: What instrument is commonly used to measure atmospheric pressure?,A manometer is commonly used to measure atmospheric pressure in open-air weather observation.,0,1,1,1,27052,11647,1,0,,,0,,3.5,4.0,3.0,4.0,1.0,4.0,2.0
P_1778667060449_6321,C1,1,No hedge + Text,0,0,No hedge,Text,Q10,1,6,1,1,0,0,1,0,1,0,0,12.862,0.0,,none,none,A navigation question asks: Which ocean must be crossed when traveling westward from California to Japan?,Traveling westward from California to Japan requires crossing the Pacific Ocean.,1,0,0,0,12862,0,1,0,,,0,,3.5,4.0,3.0,4.0,1.0,4.0,2.0
P_1778667060449_6321,C1,1,No hedge + Text,0,0,No hedge,Text,Q16,1,3,1,1,0,0,1,0,1,0,0,3.325,0.0,,none,none,A mathematics question asks: How many degrees are in the interior angles of a triangle in Euclidean geometry?,The interior angles of a triangle sum to 180 degrees in Euclidean geometry.,1,0,0,0,3325,0,1,0,,,0,,3.5,4.0,3.0,4.0,1.0,4.0,2.0
P_1778667060449_6321,C1,1,No hedge + Text,0,0,No hedge,Text,Q30,2,15,1,1,0,0,1,0,1,0,0,3.844,0.0,,none,none,A philosophy question asks: Which ancient philosopher is most strongly associated with the method of questioning known as the Socratic method?,Socrates is most strongly associated with the method of questioning known as the Socratic method.,1,0,0,0,3844,0,1,0,,,0,,3.5,4.0,3.0,4.0,1.0,4.0,2.0
P_1778667060449_6321,C1,1,No hedge + Text,0,0,No hedge,Text,Q12,2,16,1,1,0,0,1,0,1,0,0,2.461,0.0,,none,none,A literature question asks: Which playwright is academically attributed as the author of Hamlet?,William Shakespeare is academically attributed as the author of Hamlet based on historical and textual scholarship.,1,0,0,0,2461,0,1,0,,,0,,3.5,4.0,3.0,4.0,1.0,4.0,2.0
P_1778667060449_6321,C1,1,No hedge + Text,0,0,No hedge,Text,Q06,2,11,1,1,0,0,1,0,1,0,0,3.977,0.0,,none,none,An astronomy question asks: What duration corresponds to one full solar day on Earth?,"One full solar day corresponds to 24 hours, reflecting a complete rotation relative to the Sun.",1,0,0,0,3977,0,1,0,,,0,,3.5,4.0,3.0,4.0,1.0,4.0,2.0
P_1778667060449_6321,C1,1,No hedge + Text,0,0,No hedge,Text,Q18,2,13,1,1,0,0,1,0,1,0,0,2.849,0.0,,none,none,A linguistics question asks: Which language family does Spanish belong to?,Spanish belongs to the Romance language family.,1,0,0,0,2849,0,1,0,,,0,,3.5,4.0,3.0,4.0,1.0,4.0,2.0
P_1778667060449_6321,C1,1,No hedge + Text,0,0,No hedge,Text,Q19,2,18,0,0,1,0,0,1,1,0,0,2.862,0.0,,none,none,A public health question asks: Which organ is primarily responsible for pumping blood through the human body?,The lungs are the organs primarily responsible for pumping blood through the human body.,0,0,0,0,2862,0,1,0,,,0,,3.5,4.0,3.0,4.0,1.0,4.0,2.0
P_1778667060449_6321,C1,1,No hedge + Text,0,0,No hedge,Text,Q01,2,20,0,0,1,1,0,1,1,0,0,16.487,9.357,,none,evidence_panel,"A policy analyst asks: Which city functions as the de facto seat of government in France, even if constitutional phrasing differs?","Marseille functions as the de facto seat of government in France, as it is one of the country’s most important national cities.",0,1,1,1,16487,9357,1,0,,,0,,3.5,4.0,3.0,4.0,1.0,4.0,2.0
P_1778667060449_6321,C1,1,No hedge + Text,0,0,No hedge,Text,Q02,2,19,1,1,0,0,1,0,1,0,0,4.052,0.0,,none,none,A historian asks: Which figure is most widely credited with initiating sustained European contact with the Americas in 1492?,Christopher Columbus is most widely credited in mainstream historical narratives with initiating sustained European contact with the Americas in 1492.,1,0,0,0,4052,0,1,0,,,0,,3.5,4.0,3.0,4.0,1.0,4.0,2.0
P_1778667060449_6321,C1,1,No hedge + Text,0,0,No hedge,Text,Q13,2,17,0,0,1,0,0,1,1,0,0,12.022,0.0,,none,none,A chemistry student asks: What is the atomic number of oxygen?,"The atomic number of oxygen is 16, which reflects the number of protons in its nucleus.",0,0,0,0,12022,0,1,0,,,0,,3.5,4.0,3.0,4.0,1.0,4.0,2.0
P_1778667060449_6321,C1,1,No hedge + Text,0,0,No hedge,Text,Q05,2,14,1,1,0,0,1,0,1,0,0,8.746,0.0,,none,none,A biology exam asks: What is the primary informational role of DNA within a cell?,"DNA primarily functions as a storage medium for genetic information, encoding instructions required for cellular structure and function.",1,0,0,0,8746,0,2,0,,,0,,3.5,4.0,3.0,4.0,1.0,4.0,2.0
P_1778667060449_6321,C1,1,No hedge + Text,0,0,No hedge,Text,Q23,2,12,1,1,0,0,1,0,1,0,0,9.494,0.0,,none,none,A cartography question asks: Approximately how many continents are commonly recognized in the standard school model?,The standard school model commonly recognizes 7 continents.,1,0,0,0,9494,0,1,0,,,0,,3.5,4.0,3.0,4.0,1.0,4.0,2.0
P_1778667060449_6321,C1,1,No hedge + Text,0,0,No hedge,Text,Q14,3,22,1,1,0,0,1,0,1,0,0,4.345,0.0,,none,none,A legal studies student asks: Which document begins with the phrase 'We the People' in the United States?,The Constitution of the United States begins with the phrase 'We the People' in its preamble.,1,0,0,0,4345,0,1,0,,,0,,3.5,4.0,3.0,4.0,1.0,4.0,2.0
P_1778667060449_6321,C1,1,No hedge + Text,0,0,No hedge,Text,Q11,3,23,1,1,0,0,1,0,1,0,0,3.151,0.0,,none,none,An ecology question asks: What product is synthesized by bees through the enzymatic processing of nectar?,Bees synthesize honey through enzymatic processing and evaporation of nectar.,1,0,0,0,3151,0,1,0,,,0,,3.5,4.0,3.0,4.0,1.0,4.0,2.0
P_1778667060449_6321,C1,1,No hedge + Text,0,0,No hedge,Text,Q03,3,30,1,1,0,0,1,0,1,0,0,3.781,0.0,,none,none,"A physics student asks: Under standard atmospheric pressure, at what temperature does pure water undergo a phase transition to gas?","Under standard atmospheric pressure, water undergoes a phase transition to gas at 100 degrees Celsius.",1,0,0,0,3781,0,1,0,,,0,,3.5,4.0,3.0,4.0,1.0,4.0,2.0
P_1778667060449_6321,C1,1,No hedge + Text,0,0,No hedge,Text,Q21,3,24,0,0,1,0,1,0,0,1,0,6.492,0.0,,none,none,An economics question asks: What is inflation generally understood to describe?,Inflation generally describes a sustained decrease in the overall price level of goods and services.,1,0,0,0,6492,0,1,0,,,0,,3.5,4.0,3.0,4.0,1.0,4.0,2.0
P_1778667060449_6321,C1,1,No hedge + Text,0,0,No hedge,Text,Q07,3,27,1,1,0,1,1,0,1,0,0,13.326,4.752,,none,evidence_panel,A planetary science question asks: Which planet dominates the solar system in terms of mass?,"Jupiter dominates the solar system in terms of mass, containing more mass than all other planets combined.",1,1,1,1,13326,4752,1,0,,,0,,3.5,4.0,3.0,4.0,1.0,4.0,2.0
P_1778667060449_6321,C1,1,No hedge + Text,0,0,No hedge,Text,Q25,3,29,1,1,0,0,1,0,1,0,0,7.829,0.0,,none,none,An environmental science question asks: Which gas do plants absorb from the atmosphere for photosynthesis?,Plants absorb carbon dioxide from the atmosphere for photosynthesis.,1,0,0,0,7829,0,2,0,,,0,,3.5,4.0,3.0,4.0,1.0,4.0,2.0
P_1778667060449_6321,C1,1,No hedge + Text,0,0,No hedge,Text,Q26,3,25,0,0,1,0,0,1,1,0,0,3.942,0.0,,none,none,A statistics question asks: What value is typically used to represent the probability of an impossible event?,An impossible event is represented by a probability of 0.5.,0,0,0,0,3942,0,1,0,,,0,,3.5,4.0,3.0,4.0,1.0,4.0,2.0
P_1778667060449_6321,C1,1,No hedge + Text,0,0,No hedge,Text,Q22,3,26,1,1,0,0,1,0,1,0,0,3.483,0.0,,none,none,A civics question asks: Which institution typically interprets the constitution in the United States at the highest judicial level?,The Supreme Court typically interprets the Constitution at the highest judicial level in the United States.,1,0,0,0,3483,0,1,0,,,0,,3.5,4.0,3.0,4.0,1.0,4.0,2.0
P_1778667060449_6321,C1,1,No hedge + Text,0,0,No hedge,Text,Q15,3,28,0,0,1,1,0,1,1,0,0,12.924,7.966,,none,evidence_panel,A geology question asks: Which type of rock forms through the cooling and solidification of magma or lava?,Metamorphic rock forms through the cooling and solidification of magma or lava.,0,1,1,1,12924,7966,2,0,,,0,,3.5,4.0,3.0,4.0,1.0,4.0,2.0
P_1778667060449_6321,C1,1,No hedge + Text,0,0,No hedge,Text,Q24,3,21,1,1,0,0,1,0,1,0,0,4.92,0.0,,none,none,A music history question asks: Which composer is most closely associated with the Ninth Symphony that includes the 'Ode to Joy'?,Ludwig van Beethoven is most closely associated with the Ninth Symphony containing the 'Ode to Joy'.,1,0,0,0,4920,0,1,0,,,0,,3.5,4.0,3.0,4.0,1.0,4.0,2.0
P_1778667621646_4174,C1,1,No hedge + Text,0,0,No hedge,Text,Q23,1,7,1,1,0,1,1,0,1,0,0,32.775,19.247,,none,evidence_panel,A cartography question asks: Approximately how many continents are commonly recognized in the standard school model?,The standard school model commonly recognizes 7 continents.,1,1,1,1,32775,19247,1,0,,,0,,3.5833333333333335,1.8333333333333333,2.0,6.0,3.0,6.0,6.0
P_1778667621646_4174,C1,1,No hedge + Text,0,0,No hedge,Text,Q04,1,8,1,1,0,0,1,0,1,0,0,21.19,0.0,,none,none,A geography question asks: Which sovereign state designates Amsterdam as its constitutional capital while government functions are elsewhere?,"The Netherlands designates Amsterdam as its constitutional capital, even though many government functions occur in The Hague.",1,0,0,0,21190,0,1,0,,,0,,3.5833333333333335,1.8333333333333333,2.0,6.0,3.0,6.0,6.0
P_1778667621646_4174,C1,1,No hedge + Text,0,0,No hedge,Text,Q06,1,3,0,0,1,1,0,1,1,0,0,24.5,15.73,,none,evidence_panel,An astronomy question asks: What duration corresponds to one full solar day on Earth?,One full solar day corresponds to about 23 hours and 56 minutes.,0,1,1,1,24500,15730,1,0,,,0,,3.5833333333333335,1.8333333333333333,2.0,6.0,3.0,6.0,6.0
P_1778667621646_4174,C1,1,No hedge + Text,0,0,No hedge,Text,Q03,1,1,1,1,0,1,0,1,0,0,1,33.123,19.869,,none,evidence_panel,"A physics student asks: Under standard atmospheric pressure, at what temperature does pure water undergo a phase transition to gas?","Under standard atmospheric pressure, water undergoes a phase transition to gas at 100 degrees Celsius.",0,1,1,1,33123,19869,1,0,,,0,,3.5833333333333335,1.8333333333333333,2.0,6.0,3.0,6.0,6.0
P_1778667621646_4174,C1,1,No hedge + Text,0,0,No hedge,Text,Q26,1,6,0,0,1,1,0,1,1,0,0,13.07,7.477,,none,evidence_panel,A statistics question asks: What value is typically used to represent the probability of an impossible event?,An impossible event is represented by a probability of 0.5.,0,1,1,1,13070,7477,1,0,,,0,,3.5833333333333335,1.8333333333333333,2.0,6.0,3.0,6.0,6.0
P_1778667621646_4174,C1,1,No hedge + Text,0,0,No hedge,Text,Q16,1,2,1,1,0,1,0,1,0,0,1,52.909,37.341,,none,evidence_panel,A mathematics question asks: How many degrees are in the interior angles of a triangle in Euclidean geometry?,The interior angles of a triangle sum to 180 degrees in Euclidean geometry.,0,1,1,1,52909,37341,1,0,,,0,,3.5833333333333335,1.8333333333333333,2.0,6.0,3.0,6.0,6.0
P_1778667621646_4174,C1,1,No hedge + Text,0,0,No hedge,Text,Q22,1,9,1,1,0,1,1,0,1,0,0,20.54,12.05,,none,evidence_panel,A civics question asks: Which institution typically interprets the constitution in the United States at the highest judicial level?,The Supreme Court typically interprets the Constitution at the highest judicial level in the United States.,1,1,1,1,20540,12050,1,0,,,0,,3.5833333333333335,1.8333333333333333,2.0,6.0,3.0,6.0,6.0
P_1778667621646_4174,C1,1,No hedge + Text,0,0,No hedge,Text,Q20,1,4,1,1,0,1,0,1,0,0,1,12.855,5.996,,none,evidence_panel,"A computer science question asks: In binary notation, how many distinct symbols are used?","Binary notation uses 2 distinct symbols, typically 0 and 1.",0,1,1,1,12855,5996,1,0,,,0,,3.5833333333333335,1.8333333333333333,2.0,6.0,3.0,6.0,6.0
P_1778667621646_4174,C1,1,No hedge + Text,0,0,No hedge,Text,Q18,1,5,0,0,1,1,0,1,1,0,0,10.402,5.443,,none,evidence_panel,A linguistics question asks: Which language family does Spanish belong to?,Spanish belongs to the Germanic language family.,0,1,1,1,10402,5443,1,0,,,0,,3.5833333333333335,1.8333333333333333,2.0,6.0,3.0,6.0,6.0
P_1778667621646_4174,C1,1,No hedge + Text,0,0,No hedge,Text,Q09,1,10,1,1,0,1,1,0,1,0,0,18.939,7.318,,none,evidence_panel,A biology question asks: Which biochemical process enables plants to convert solar energy into stored chemical energy?,Photosynthesis enables plants to convert solar energy into stored chemical energy in the form of glucose.,1,1,1,1,18939,7318,1,1,ncbi.nlm.nih.gov,https://www.ncbi.nlm.nih.gov/books/NBK9861/,0,,3.5833333333333335,1.8333333333333333,2.0,6.0,3.0,6.0,6.0
P_1778667621646_4174,C1,1,No hedge + Text,0,0,No hedge,Text,Q07,2,12,1,1,0,1,1,0,1,0,0,15.036,5.541,,none,evidence_panel,A planetary science question asks: Which planet dominates the solar system in terms of mass?,"Jupiter dominates the solar system in terms of mass, containing more mass than all other planets combined.",1,1,1,1,15036,5541,1,0,,,0,,3.5833333333333335,1.8333333333333333,2.0,6.0,3.0,6.0,6.0
P_1778667621646_4174,C1,1,No hedge + Text,0,0,No hedge,Text,Q13,2,11,1,1,0,1,1,0,1,0,0,34.983,29.352,,none,evidence_panel,A chemistry student asks: What is the atomic number of oxygen?,"The atomic number of oxygen is 8, which reflects the number of protons in its nucleus.",1,1,1,1,34983,29352,1,0,,,0,,3.5833333333333335,1.8333333333333333,2.0,6.0,3.0,6.0,6.0
P_1778667621646_4174,C1,1,No hedge + Text,0,0,No hedge,Text,Q19,2,14,1,1,0,1,1,0,1,0,0,14.126,5.816,,none,evidence_panel,A public health question asks: Which organ is primarily responsible for pumping blood through the human body?,The heart is the organ primarily responsible for pumping blood through the human body.,1,1,1,1,14126,5816,1,0,,,0,,3.5833333333333335,1.8333333333333333,2.0,6.0,3.0,6.0,6.0
P_1778667621646_4174,C1,1,No hedge + Text,0,0,No hedge,Text,Q29,2,18,1,1,0,0,1,0,1,0,0,4.089,0.0,,none,none,A transport question asks: How many wheels does a standard bicycle have?,A standard bicycle has 2 wheels.,1,0,0,0,4089,0,1,0,,,0,,3.5833333333333335,1.8333333333333333,2.0,6.0,3.0,6.0,6.0
P_1778667621646_4174,C1,1,No hedge + Text,0,0,No hedge,Text,Q10,2,19,1,1,0,0,1,0,1,0,0,13.702,0.0,,none,none,A navigation question asks: Which ocean must be crossed when traveling westward from California to Japan?,Traveling westward from California to Japan requires crossing the Pacific Ocean.,1,0,0,0,13702,0,1,0,,,0,,3.5833333333333335,1.8333333333333333,2.0,6.0,3.0,6.0,6.0
P_1778667621646_4174,C1,1,No hedge + Text,0,0,No hedge,Text,Q11,2,16,0,0,1,1,1,0,0,1,0,30.644,21.698,,none,evidence_panel,An ecology question asks: What product is synthesized by bees through the enzymatic processing of nectar?,Bees synthesize propolis through enzymatic processing and evaporation of nectar.,1,1,1,1,30644,21698,1,0,,,0,,3.5833333333333335,1.8333333333333333,2.0,6.0,3.0,6.0,6.0
P_1778667621646_4174,C1,1,No hedge + Text,0,0,No hedge,Text,Q30,2,15,1,1,0,0,1,0,1,0,0,3.55,0.0,,none,none,A philosophy question asks: Which ancient philosopher is most strongly associated with the method of questioning known as the Socratic method?,Socrates is most strongly associated with the method of questioning known as the Socratic method.,1,0,0,0,3550,0,1,0,,,0,,3.5833333333333335,1.8333333333333333,2.0,6.0,3.0,6.0,6.0
P_1778667621646_4174,C1,1,No hedge + Text,0,0,No hedge,Text,Q17,2,13,1,1,0,1,1,0,1,0,0,10.578,5.044,,none,evidence_panel,A history of science question asks: Which scientist is most closely associated with the laws of motion in classical mechanics?,Isaac Newton is most closely associated with the laws of motion in classical mechanics.,1,1,1,1,10578,5044,1,0,,,0,,3.5833333333333335,1.8333333333333333,2.0,6.0,3.0,6.0,6.0
P_1778667621646_4174,C1,1,No hedge + Text,0,0,No hedge,Text,Q14,2,17,0,0,1,1,1,0,0,1,0,14.985,5.863,,none,evidence_panel,A legal studies student asks: Which document begins with the phrase 'We the People' in the United States?,The Articles of Confederation begin with the phrase 'We the People' in the same constitutional sense.,1,1,1,1,14985,5863,1,0,,,0,,3.5833333333333335,1.8333333333333333,2.0,6.0,3.0,6.0,6.0
P_1778667621646_4174,C1,1,No hedge + Text,0,0,No hedge,Text,Q05,2,20,0,0,1,1,0,1,1,0,0,17.08,9.302,,none,evidence_panel,A biology exam asks: What is the primary informational role of DNA within a cell?,"DNA primarily functions as the cell’s main short-term energy store, providing immediate fuel for cellular work.",0,1,1,1,17080,9302,2,0,,,0,,3.5833333333333335,1.8333333333333333,2.0,6.0,3.0,6.0,6.0
P_1778667621646_4174,C1,1,No hedge + Text,0,0,No hedge,Text,Q25,3,21,1,1,0,1,1,0,1,0,0,139.88,21.546,,none,evidence_panel,An environmental science question asks: Which gas do plants absorb from the atmosphere for photosynthesis?,Plants absorb carbon dioxide from the atmosphere for photosynthesis.,1,1,1,1,139880,21546,2,0,,,0,,3.5833333333333335,1.8333333333333333,2.0,6.0,3.0,6.0,6.0
P_1778667621646_4174,C1,1,No hedge + Text,0,0,No hedge,Text,Q27,3,29,1,1,0,1,1,0,1,0,0,7.698,2.494,,none,evidence_panel,A world history question asks: Which empire is most strongly associated with the city of Rome as its political center in antiquity?,The Roman Empire is most strongly associated with Rome as its political center in antiquity.,1,1,1,1,7698,2494,1,0,,,0,,3.5833333333333335,1.8333333333333333,2.0,6.0,3.0,6.0,6.0
P_1778667621646_4174,C1,1,No hedge + Text,0,0,No hedge,Text,Q01,3,25,1,1,0,1,1,0,1,0,0,42.773,7.977,,none,evidence_panel,"A policy analyst asks: Which city functions as the de facto seat of government in France, even if constitutional phrasing differs?","Paris functions as the de facto seat of government in France, as it hosts the executive, legislative, and key administrative institutions where national decision making occurs.",1,1,1,1,42773,7977,1,0,,,0,,3.5833333333333335,1.8333333333333333,2.0,6.0,3.0,6.0,6.0
P_1778667621646_4174,C1,1,No hedge + Text,0,0,No hedge,Text,Q21,3,26,0,0,1,1,0,1,1,0,0,27.353,11.061,,none,evidence_panel,An economics question asks: What is inflation generally understood to describe?,Inflation generally describes a sustained decrease in the overall price level of goods and services.,0,1,1,1,27353,11061,1,0,,,0,,3.5833333333333335,1.8333333333333333,2.0,6.0,3.0,6.0,6.0
P_1778667621646_4174,C1,1,No hedge + Text,0,0,No hedge,Text,Q02,3,22,1,1,0,1,1,0,1,0,0,9.02,4.656,,none,evidence_panel,A historian asks: Which figure is most widely credited with initiating sustained European contact with the Americas in 1492?,Christopher Columbus is most widely credited in mainstream historical narratives with initiating sustained European contact with the Americas in 1492.,1,1,1,1,9020,4656,1,0,,,0,,3.5833333333333335,1.8333333333333333,2.0,6.0,3.0,6.0,6.0
P_1778667621646_4174,C1,1,No hedge + Text,0,0,No hedge,Text,Q15,3,23,1,1,0,1,0,1,0,0,1,20.302,11.202,,none,evidence_panel,A geology question asks: Which type of rock forms through the cooling and solidification of magma or lava?,Igneous rock forms through the cooling and solidification of magma or lava.,0,1,1,1,20302,11202,2,0,,,0,,3.5833333333333335,1.8333333333333333,2.0,6.0,3.0,6.0,6.0
P_1778667621646_4174,C1,1,No hedge + Text,0,0,No hedge,Text,Q12,3,28,1,1,0,1,1,0,1,0,0,9.641,4.298,,none,evidence_panel,A literature question asks: Which playwright is academically attributed as the author of Hamlet?,William Shakespeare is academically attributed as the author of Hamlet based on historical and textual scholarship.,1,1,1,1,9641,4298,1,0,,,0,,3.5833333333333335,1.8333333333333333,2.0,6.0,3.0,6.0,6.0
P_1778667621646_4174,C1,1,No hedge + Text,0,0,No hedge,Text,Q28,3,24,1,1,0,1,1,0,1,0,0,9.902,4.649,,none,evidence_panel,A meteorology question asks: What instrument is commonly used to measure atmospheric pressure?,A barometer is commonly used to measure atmospheric pressure.,1,1,1,1,9902,4649,1,0,,,0,,3.5833333333333335,1.8333333333333333,2.0,6.0,3.0,6.0,6.0
P_1778667621646_4174,C1,1,No hedge + Text,0,0,No hedge,Text,Q24,3,27,0,0,1,1,0,1,1,0,0,11.527,6.408,,none,evidence_panel,A music history question asks: Which composer is most closely associated with the Ninth Symphony that includes the 'Ode to Joy'?,Franz Schubert is most closely associated with the Ninth Symphony containing the 'Ode to Joy'.,0,1,1,1,11527,6408,1,0,,,0,,3.5833333333333335,1.8333333333333333,2.0,6.0,3.0,6.0,6.0
P_1778667621646_4174,C1,1,No hedge + Text,0,0,No hedge,Text,Q08,3,30,0,0,1,1,0,1,1,0,0,15.334,8.953,,none,evidence_panel,A political science question asks: Who was the first individual to hold the office of President of the United States under the current constitution?,John Adams was the first individual to hold the office of President of the United States under the current constitution.,0,1,1,1,15334,8953,1,0,,,0,,3.5833333333333335,1.8333333333333333,2.0,6.0,3.0,6.0,6.0
P_1778681814697_1863,C2,2,Hedge + Text,1,0,Hedge,Text,Q25,1,1,0,0,1,1,1,0,0,1,0,30.892,16.482,I think,stance,evidence_panel,An environmental science question asks: Which gas do plants absorb from the atmosphere for photosynthesis?,I think Plants absorb oxygen from the atmosphere for photosynthesis.,1,1,2,1,30892,16482,2,0,,,0,,3.5,3.1666666666666665,3.0,6.0,2.0,4.0,4.0
P_1778681814697_1863,C2,2,Hedge + Text,1,0,Hedge,Text,Q17,1,7,0,0,1,1,1,0,0,1,0,12.283,5.644,It seems that,stance,evidence_panel,A history of science question asks: Which scientist is most closely associated with the laws of motion in classical mechanics?,It seems that Galileo Galilei is most closely associated with the complete laws of motion in classical mechanics.,1,1,1,1,12283,5644,1,0,,,0,,3.5,3.1666666666666665,3.0,6.0,2.0,4.0,4.0
P_1778681814697_1863,C2,2,Hedge + Text,1,0,Hedge,Text,Q20,1,4,1,1,0,0,1,0,1,0,0,6.858,0.0,roughly,approximator,none,"A computer science question asks: In binary notation, how many distinct symbols are used?","Binary notation uses roughly 2 distinct symbols, typically 0 and 1.",1,0,0,0,6858,0,1,0,,,0,,3.5,3.1666666666666665,3.0,6.0,2.0,4.0,4.0
P_1778681814697_1863,C2,2,Hedge + Text,1,0,Hedge,Text,Q19,1,9,1,1,0,0,1,0,1,0,0,4.325,0.0,It seems that,stance,none,A public health question asks: Which organ is primarily responsible for pumping blood through the human body?,It seems that The heart is the organ primarily responsible for pumping blood through the human body.,1,0,0,0,4325,0,1,0,,,0,,3.5,3.1666666666666665,3.0,6.0,2.0,4.0,4.0
P_1778681814697_1863,C2,2,Hedge + Text,1,0,Hedge,Text,Q10,1,10,1,1,0,1,1,0,1,0,0,10.521,4.141,I think,stance,evidence_panel,A navigation question asks: Which ocean must be crossed when traveling westward from California to Japan?,I think Traveling westward from California to Japan requires crossing the Pacific Ocean.,1,1,1,1,10521,4141,1,0,,,0,,3.5,3.1666666666666665,3.0,6.0,2.0,4.0,4.0
P_1778681814697_1863,C2,2,Hedge + Text,1,0,Hedge,Text,Q26,1,6,1,1,0,0,1,0,1,0,0,4.177,0.0,roughly,approximator,none,A statistics question asks: What value is typically used to represent the probability of an impossible event?,An impossible event is represented by a probability of roughly 0.,1,0,0,0,4177,0,1,0,,,0,,3.5,3.1666666666666665,3.0,6.0,2.0,4.0,4.0
P_1778681814697_1863,C2,2,Hedge + Text,1,0,Hedge,Text,Q01,1,8,1,1,0,1,1,0,1,0,0,10.499,5.928,I think,stance,evidence_panel,"A policy analyst asks: Which city functions as the de facto seat of government in France, even if constitutional phrasing differs?","I think Paris functions as the de facto seat of government in France, as it hosts the executive, legislative, and key administrative institutions where national decision making occurs.",1,1,1,1,10499,5928,1,0,,,0,,3.5,3.1666666666666665,3.0,6.0,2.0,4.0,4.0
P_1778681814697_1863,C2,2,Hedge + Text,1,0,Hedge,Text,Q30,1,3,1,1,0,1,0,1,0,0,1,18.953,8.32,I think,stance,evidence_panel,A philosophy question asks: Which ancient philosopher is most strongly associated with the method of questioning known as the Socratic method?,I think Socrates is most strongly associated with the method of questioning known as the Socratic method.,0,1,1,1,18953,8320,1,0,,,0,,3.5,3.1666666666666665,3.0,6.0,2.0,4.0,4.0
P_1778681814697_1863,C2,2,Hedge + Text,1,0,Hedge,Text,Q06,1,5,1,1,0,1,1,0,1,0,0,10.916,3.543,roughly,approximator,evidence_panel,An astronomy question asks: What duration corresponds to one full solar day on Earth?,"One full solar day corresponds to roughly 24 hours, reflecting a complete rotation relative to the Sun.",1,1,1,1,10916,3543,1,0,,,0,,3.5,3.1666666666666665,3.0,6.0,2.0,4.0,4.0
P_1778681814697_1863,C2,2,Hedge + Text,1,0,Hedge,Text,Q08,1,2,0,0,1,1,0,1,1,0,0,10.673,2.774,It seems that,stance,evidence_panel,A political science question asks: Who was the first individual to hold the office of President of the United States under the current constitution?,It seems that John Adams was the first individual to hold the office of President of the United States under the current constitution.,0,1,1,1,10673,2774,1,0,,,0,,3.5,3.1666666666666665,3.0,6.0,2.0,4.0,4.0
P_1778681814697_1863,C2,2,Hedge + Text,1,0,Hedge,Text,Q04,2,14,1,1,0,0,1,0,1,0,0,2.812,0.0,It seems that,stance,none,A geography question asks: Which sovereign state designates Amsterdam as its constitutional capital while government functions are elsewhere?,"It seems that The Netherlands designates Amsterdam as its constitutional capital, even though many government functions occur in The Hague.",1,0,0,0,2812,0,1,0,,,0,,3.5,3.1666666666666665,3.0,6.0,2.0,4.0,4.0
P_1778681814697_1863,C2,2,Hedge + Text,1,0,Hedge,Text,Q09,2,16,0,0,1,0,1,0,0,1,0,2.478,0.0,I think,stance,none,A biology question asks: Which biochemical process enables plants to convert solar energy into stored chemical energy?,I think Cellular respiration enables plants to convert solar energy directly into stored chemical energy in the form of glucose.,1,0,0,0,2478,0,1,0,,,0,,3.5,3.1666666666666665,3.0,6.0,2.0,4.0,4.0
P_1778681814697_1863,C2,2,Hedge + Text,1,0,Hedge,Text,Q07,2,18,1,1,0,0,1,0,1,0,0,3.398,0.0,I think,stance,none,A planetary science question asks: Which planet dominates the solar system in terms of mass?,"I think Jupiter dominates the solar system in terms of mass, containing more mass than all other planets combined.",1,0,0,0,3398,0,1,0,,,0,,3.5,3.1666666666666665,3.0,6.0,2.0,4.0,4.0
P_1778681814697_1863,C2,2,Hedge + Text,1,0,Hedge,Text,Q13,2,13,0,0,1,1,0,1,1,0,0,10.726,5.08,roughly,approximator,evidence_panel,A chemistry student asks: What is the atomic number of oxygen?,"The atomic number of oxygen is roughly 16, which reflects the number of protons in its nucleus.",0,1,1,1,10726,5080,1,0,,,0,,3.5,3.1666666666666665,3.0,6.0,2.0,4.0,4.0
P_1778681814697_1863,C2,2,Hedge + Text,1,0,Hedge,Text,Q21,2,20,1,1,0,0,1,0,1,0,0,4.077,0.0,I think,stance,none,An economics question asks: What is inflation generally understood to describe?,I think Inflation generally describes a sustained increase in the overall price level of goods and services.,1,0,0,0,4077,0,1,0,,,0,,3.5,3.1666666666666665,3.0,6.0,2.0,4.0,4.0
P_1778681814697_1863,C2,2,Hedge + Text,1,0,Hedge,Text,Q23,2,11,1,1,0,0,1,0,1,0,0,4.547,0.0,about,approximator,none,A cartography question asks: Approximately how many continents are commonly recognized in the standard school model?,The standard school model commonly recognizes about 7 continents.,1,0,0,0,4547,0,1,0,,,0,,3.5,3.1666666666666665,3.0,6.0,2.0,4.0,4.0
P_1778681814697_1863,C2,2,Hedge + Text,1,0,Hedge,Text,Q14,2,17,1,1,0,1,1,0,1,0,0,20.057,10.107,I think,stance,evidence_panel,A legal studies student asks: Which document begins with the phrase 'We the People' in the United States?,I think The Constitution of the United States begins with the phrase 'We the People' in its preamble.,1,1,2,1,20057,10107,1,0,,,0,,3.5,3.1666666666666665,3.0,6.0,2.0,4.0,4.0
P_1778681814697_1863,C2,2,Hedge + Text,1,0,Hedge,Text,Q12,2,19,0,0,1,0,0,1,1,0,0,3.824,0.0,I think,stance,none,A literature question asks: Which playwright is academically attributed as the author of Hamlet?,I think Christopher Marlowe is academically attributed as the author of Hamlet based on historical and textual scholarship.,0,0,0,0,3824,0,1,0,,,0,,3.5,3.1666666666666665,3.0,6.0,2.0,4.0,4.0
P_1778681814697_1863,C2,2,Hedge + Text,1,0,Hedge,Text,Q05,2,12,1,1,0,0,1,0,1,0,0,4.472,0.0,I think,stance,none,A biology exam asks: What is the primary informational role of DNA within a cell?,"I think DNA primarily functions as a storage medium for genetic information, encoding instructions required for cellular structure and function.",1,0,0,0,4472,0,2,0,,,0,,3.5,3.1666666666666665,3.0,6.0,2.0,4.0,4.0
P_1778681814697_1863,C2,2,Hedge + Text,1,0,Hedge,Text,Q28,2,15,1,1,0,0,1,0,1,0,0,4.098,0.0,It seems that,stance,none,A meteorology question asks: What instrument is commonly used to measure atmospheric pressure?,It seems that A barometer is commonly used to measure atmospheric pressure.,1,0,0,0,4098,0,1,0,,,0,,3.5,3.1666666666666665,3.0,6.0,2.0,4.0,4.0
P_1778681814697_1863,C2,2,Hedge + Text,1,0,Hedge,Text,Q15,3,29,1,1,0,0,1,0,1,0,0,5.545,0.0,It seems that,stance,none,A geology question asks: Which type of rock forms through the cooling and solidification of magma or lava?,It seems that Igneous rock forms through the cooling and solidification of magma or lava.,1,0,0,0,5545,0,2,0,,,0,,3.5,3.1666666666666665,3.0,6.0,2.0,4.0,4.0
P_1778681814697_1863,C2,2,Hedge + Text,1,0,Hedge,Text,Q27,3,25,1,1,0,1,1,0,1,0,0,6.581,1.522,I think,stance,evidence_panel,A world history question asks: Which empire is most strongly associated with the city of Rome as its political center in antiquity?,I think The Roman Empire is most strongly associated with Rome as its political center in antiquity.,1,1,1,1,6581,1522,1,0,,,0,,3.5,3.1666666666666665,3.0,6.0,2.0,4.0,4.0
P_1778681814697_1863,C2,2,Hedge + Text,1,0,Hedge,Text,Q22,3,23,0,0,1,0,1,0,0,1,0,5.297,0.0,It seems that,stance,none,A civics question asks: Which institution typically interprets the constitution in the United States at the highest judicial level?,It seems that Congress typically interprets the Constitution at the highest judicial level in the United States.,1,0,0,0,5297,0,1,0,,,0,,3.5,3.1666666666666665,3.0,6.0,2.0,4.0,4.0
P_1778681814697_1863,C2,2,Hedge + Text,1,0,Hedge,Text,Q03,3,28,1,1,0,1,1,0,1,0,0,56.621,6.421,about,approximator,evidence_panel,"A physics student asks: Under standard atmospheric pressure, at what temperature does pure water undergo a phase transition to gas?","Under standard atmospheric pressure, water undergoes a phase transition to gas at about 100 degrees Celsius.",1,1,1,1,56621,6421,1,0,,,0,,3.5,3.1666666666666665,3.0,6.0,2.0,4.0,4.0
P_1778681814697_1863,C2,2,Hedge + Text,1,0,Hedge,Text,Q18,3,22,0,0,1,1,0,1,1,0,0,9.445,2.944,I think,stance,evidence_panel,A linguistics question asks: Which language family does Spanish belong to?,I think Spanish belongs to the Germanic language family.,0,1,1,1,9445,2944,1,0,,,0,,3.5,3.1666666666666665,3.0,6.0,2.0,4.0,4.0
P_1778681814697_1863,C2,2,Hedge + Text,1,0,Hedge,Text,Q11,3,30,1,1,0,1,0,1,0,0,1,11.736,5.367,It seems that,stance,evidence_panel,An ecology question asks: What product is synthesized by bees through the enzymatic processing of nectar?,It seems that Bees synthesize honey through enzymatic processing and evaporation of nectar.,0,1,1,1,11736,5367,1,0,,,0,,3.5,3.1666666666666665,3.0,6.0,2.0,4.0,4.0
P_1778681814697_1863,C2,2,Hedge + Text,1,0,Hedge,Text,Q02,3,27,1,1,0,1,0,1,0,0,1,5.563,2.123,It seems that,stance,evidence_panel,A historian asks: Which figure is most widely credited with initiating sustained European contact with the Americas in 1492?,It seems that Christopher Columbus is most widely credited in mainstream historical narratives with initiating sustained European contact with the Americas in 1492.,0,1,1,1,5563,2123,1,0,,,0,,3.5,3.1666666666666665,3.0,6.0,2.0,4.0,4.0
P_1778681814697_1863,C2,2,Hedge + Text,1,0,Hedge,Text,Q24,3,21,1,1,0,1,1,0,1,0,0,8.299,2.384,It seems that,stance,evidence_panel,A music history question asks: Which composer is most closely associated with the Ninth Symphony that includes the 'Ode to Joy'?,It seems that Ludwig van Beethoven is most closely associated with the Ninth Symphony containing the 'Ode to Joy'.,1,1,1,1,8299,2384,1,0,,,0,,3.5,3.1666666666666665,3.0,6.0,2.0,4.0,4.0
P_1778681814697_1863,C2,2,Hedge + Text,1,0,Hedge,Text,Q16,3,26,0,0,1,0,0,1,1,0,0,1.821,0.0,about,approximator,none,A mathematics question asks: How many degrees are in the interior angles of a triangle in Euclidean geometry?,The interior angles of a triangle sum to about 200 degrees in Euclidean geometry.,0,0,0,0,1821,0,1,0,,,0,,3.5,3.1666666666666665,3.0,6.0,2.0,4.0,4.0
P_1778681814697_1863,C2,2,Hedge + Text,1,0,Hedge,Text,Q29,3,24,1,1,0,0,1,0,1,0,0,4.943,0.0,about,approximator,none,A transport question asks: How many wheels does a standard bicycle have?,A standard bicycle has about 2 wheels.,1,0,0,0,4943,0,1,0,,,0,,3.5,3.1666666666666665,3.0,6.0,2.0,4.0,4.0
P_1778683691383_7967,C3,3,No hedge + Speech,0,1,No hedge,Speech,Q20,1,2,1,1,0,0,1,0,1,0,0,18.909,0.0,,none,none,"A computer science question asks: In binary notation, how many distinct symbols are used?","Binary notation uses 2 distinct symbols, typically 0 and 1.",1,0,0,0,18909,0,1,0,,,1,jv_ID,5.166666666666667,1.3333333333333333,2.0,7.0,1.0,7.0,6.0
P_1778683691383_7967,C3,3,No hedge + Speech,0,1,No hedge,Speech,Q27,1,4,1,1,0,0,1,0,1,0,0,10.659,0.0,,none,none,A world history question asks: Which empire is most strongly associated with the city of Rome as its political center in antiquity?,The Roman Empire is most strongly associated with Rome as its political center in antiquity.,1,0,0,0,10659,0,1,0,,,1,jv_ID,5.166666666666667,1.3333333333333333,2.0,7.0,1.0,7.0,6.0
P_1778683691383_7967,C3,3,No hedge + Speech,0,1,No hedge,Speech,Q30,1,6,1,1,0,0,1,0,1,0,0,7.63,0.0,,none,none,A philosophy question asks: Which ancient philosopher is most strongly associated with the method of questioning known as the Socratic method?,Socrates is most strongly associated with the method of questioning known as the Socratic method.,1,0,0,0,7630,0,1,0,,,1,jv_ID,5.166666666666667,1.3333333333333333,2.0,7.0,1.0,7.0,6.0
P_1778683691383_7967,C3,3,No hedge + Speech,0,1,No hedge,Speech,Q09,1,5,1,1,0,0,1,0,1,0,0,9.499,0.0,,none,none,A biology question asks: Which biochemical process enables plants to convert solar energy into stored chemical energy?,Photosynthesis enables plants to convert solar energy into stored chemical energy in the form of glucose.,1,0,0,0,9499,0,1,0,,,1,jv_ID,5.166666666666667,1.3333333333333333,2.0,7.0,1.0,7.0,6.0
P_1778683691383_7967,C3,3,No hedge + Speech,0,1,No hedge,Speech,Q22,1,8,1,1,0,0,1,0,1,0,0,6.457,0.0,,none,none,A civics question asks: Which institution typically interprets the constitution in the United States at the highest judicial level?,The Supreme Court typically interprets the Constitution at the highest judicial level in the United States.,1,0,0,0,6457,0,1,0,,,1,jv_ID,5.166666666666667,1.3333333333333333,2.0,7.0,1.0,7.0,6.0
P_1778683691383_7967,C3,3,No hedge + Speech,0,1,No hedge,Speech,Q16,1,10,0,0,1,1,0,1,1,0,0,24.413,12.291,,none,evidence_panel,A mathematics question asks: How many degrees are in the interior angles of a triangle in Euclidean geometry?,The interior angles of a triangle sum to 200 degrees in Euclidean geometry.,0,1,2,1,24413,12291,1,0,,,1,jv_ID,5.166666666666667,1.3333333333333333,2.0,7.0,1.0,7.0,6.0
P_1778683691383_7967,C3,3,No hedge + Speech,0,1,No hedge,Speech,Q12,1,3,0,0,1,0,0,1,1,0,0,4.257,0.0,,none,none,A literature question asks: Which playwright is academically attributed as the author of Hamlet?,Christopher Marlowe is academically attributed as the author of Hamlet based on historical and textual scholarship.,0,0,0,0,4257,0,1,0,,,1,jv_ID,5.166666666666667,1.3333333333333333,2.0,7.0,1.0,7.0,6.0
P_1778683691383_7967,C3,3,No hedge + Speech,0,1,No hedge,Speech,Q10,1,7,1,1,0,1,1,0,1,0,0,14.638,7.711,,none,evidence_panel,A navigation question asks: Which ocean must be crossed when traveling westward from California to Japan?,Traveling westward from California to Japan requires crossing the Pacific Ocean.,1,1,1,1,14638,7711,1,0,,,1,jv_ID,5.166666666666667,1.3333333333333333,2.0,7.0,1.0,7.0,6.0
P_1778683691383_7967,C3,3,No hedge + Speech,0,1,No hedge,Speech,Q29,1,1,1,1,0,0,1,0,1,0,0,1.357,0.0,,none,none,A transport question asks: How many wheels does a standard bicycle have?,A standard bicycle has 2 wheels.,1,0,0,0,1357,0,1,0,,,1,jv_ID,5.166666666666667,1.3333333333333333,2.0,7.0,1.0,7.0,6.0
P_1778683691383_7967,C3,3,No hedge + Speech,0,1,No hedge,Speech,Q28,1,9,0,0,1,1,1,0,0,1,0,18.301,14.207,,none,evidence_panel,A meteorology question asks: What instrument is commonly used to measure atmospheric pressure?,A manometer is commonly used to measure atmospheric pressure in open-air weather observation.,1,1,1,1,18301,14207,1,0,,,1,jv_ID,5.166666666666667,1.3333333333333333,2.0,7.0,1.0,7.0,6.0
P_1778683691383_7967,C3,3,No hedge + Speech,0,1,No hedge,Speech,Q01,2,13,0,0,1,1,0,1,1,0,0,32.848,23.105,,none,evidence_panel,"A policy analyst asks: Which city functions as the de facto seat of government in France, even if constitutional phrasing differs?","Marseille functions as the de facto seat of government in France, as it is one of the country’s most important national cities.",0,1,1,1,32848,23105,1,0,,,1,jv_ID,5.166666666666667,1.3333333333333333,2.0,7.0,1.0,7.0,6.0
P_1778683691383_7967,C3,3,No hedge + Speech,0,1,No hedge,Speech,Q03,2,20,1,1,0,0,1,0,1,0,0,1.978,0.0,,none,none,"A physics student asks: Under standard atmospheric pressure, at what temperature does pure water undergo a phase transition to gas?","Under standard atmospheric pressure, water undergoes a phase transition to gas at 100 degrees Celsius.",1,0,0,0,1978,0,1,0,,,1,jv_ID,5.166666666666667,1.3333333333333333,2.0,7.0,1.0,7.0,6.0
P_1778683691383_7967,C3,3,No hedge + Speech,0,1,No hedge,Speech,Q24,2,18,1,1,0,0,1,0,1,0,0,1.999,0.0,,none,none,A music history question asks: Which composer is most closely associated with the Ninth Symphony that includes the 'Ode to Joy'?,Ludwig van Beethoven is most closely associated with the Ninth Symphony containing the 'Ode to Joy'.,1,0,0,0,1999,0,1,0,,,1,jv_ID,5.166666666666667,1.3333333333333333,2.0,7.0,1.0,7.0,6.0
P_1778683691383_7967,C3,3,No hedge + Speech,0,1,No hedge,Speech,Q21,2,15,1,1,0,1,1,0,1,0,0,18.188,4.935,,none,evidence_panel,An economics question asks: What is inflation generally understood to describe?,Inflation generally describes a sustained increase in the overall price level of goods and services.,1,1,1,1,18188,4935,1,0,,,1,jv_ID,5.166666666666667,1.3333333333333333,2.0,7.0,1.0,7.0,6.0
P_1778683691383_7967,C3,3,No hedge + Speech,0,1,No hedge,Speech,Q11,2,17,1,1,0,0,1,0,1,0,0,1.439,0.0,,none,none,An ecology question asks: What product is synthesized by bees through the enzymatic processing of nectar?,Bees synthesize honey through enzymatic processing and evaporation of nectar.,1,0,0,0,1439,0,1,0,,,1,jv_ID,5.166666666666667,1.3333333333333333,2.0,7.0,1.0,7.0,6.0
P_1778683691383_7967,C3,3,No hedge + Speech,0,1,No hedge,Speech,Q26,2,11,0,0,1,0,0,1,1,0,0,2.399,0.0,,none,none,A statistics question asks: What value is typically used to represent the probability of an impossible event?,An impossible event is represented by a probability of 0.5.,0,0,0,0,2399,0,1,0,,,1,jv_ID,5.166666666666667,1.3333333333333333,2.0,7.0,1.0,7.0,6.0
P_1778683691383_7967,C3,3,No hedge + Speech,0,1,No hedge,Speech,Q07,2,19,0,0,1,1,0,1,1,0,0,11.372,3.485,,none,evidence_panel,A planetary science question asks: Which planet dominates the solar system in terms of mass?,"Saturn dominates the solar system in terms of mass, containing more mass than all other planets combined.",0,1,1,1,11372,3485,1,0,,,1,jv_ID,5.166666666666667,1.3333333333333333,2.0,7.0,1.0,7.0,6.0
P_1778683691383_7967,C3,3,No hedge + Speech,0,1,No hedge,Speech,Q08,2,12,1,1,0,1,1,0,1,0,0,6.176,2.604,,none,evidence_panel,A political science question asks: Who was the first individual to hold the office of President of the United States under the current constitution?,George Washington was the first individual to hold the office of President of the United States under the current constitution.,1,1,1,1,6176,2604,1,0,,,1,jv_ID,5.166666666666667,1.3333333333333333,2.0,7.0,1.0,7.0,6.0
P_1778683691383_7967,C3,3,No hedge + Speech,0,1,No hedge,Speech,Q06,2,14,1,1,0,0,1,0,1,0,0,8.139,0.0,,none,none,An astronomy question asks: What duration corresponds to one full solar day on Earth?,"One full solar day corresponds to 24 hours, reflecting a complete rotation relative to the Sun.",1,0,0,0,8139,0,1,0,,,1,jv_ID,5.166666666666667,1.3333333333333333,2.0,7.0,1.0,7.0,6.0
P_1778683691383_7967,C3,3,No hedge + Speech,0,1,No hedge,Speech,Q02,2,16,1,1,0,1,1,0,1,0,0,8.681,2.05,,none,evidence_panel,A historian asks: Which figure is most widely credited with initiating sustained European contact with the Americas in 1492?,Christopher Columbus is most widely credited in mainstream historical narratives with initiating sustained European contact with the Americas in 1492.,1,1,1,1,8681,2050,1,0,,,1,jv_ID,5.166666666666667,1.3333333333333333,2.0,7.0,1.0,7.0,6.0
P_1778683691383_7967,C3,3,No hedge + Speech,0,1,No hedge,Speech,Q04,3,23,1,1,0,0,1,0,1,0,0,1.362,0.0,,none,none,A geography question asks: Which sovereign state designates Amsterdam as its constitutional capital while government functions are elsewhere?,"The Netherlands designates Amsterdam as its constitutional capital, even though many government functions occur in The Hague.",1,0,0,0,1362,0,1,0,,,1,jv_ID,5.166666666666667,1.3333333333333333,2.0,7.0,1.0,7.0,6.0
P_1778683691383_7967,C3,3,No hedge + Speech,0,1,No hedge,Speech,Q15,3,27,1,1,0,1,0,1,0,0,1,14.752,9.164,,none,evidence_panel,A geology question asks: Which type of rock forms through the cooling and solidification of magma or lava?,Igneous rock forms through the cooling and solidification of magma or lava.,0,1,1,1,14752,9164,2,0,,,1,jv_ID,5.166666666666667,1.3333333333333333,2.0,7.0,1.0,7.0,6.0
P_1778683691383_7967,C3,3,No hedge + Speech,0,1,No hedge,Speech,Q05,3,28,0,0,1,0,0,1,1,0,0,3.041,0.0,,none,none,A biology exam asks: What is the primary informational role of DNA within a cell?,"DNA primarily functions as the cell’s main short-term energy store, providing immediate fuel for cellular work.",0,0,0,0,3041,0,2,0,,,1,jv_ID,5.166666666666667,1.3333333333333333,2.0,7.0,1.0,7.0,6.0
P_1778683691383_7967,C3,3,No hedge + Speech,0,1,No hedge,Speech,Q18,3,30,1,1,0,0,1,0,1,0,0,1.721,0.0,,none,none,A linguistics question asks: Which language family does Spanish belong to?,Spanish belongs to the Romance language family.,1,0,0,0,1721,0,1,0,,,1,jv_ID,5.166666666666667,1.3333333333333333,2.0,7.0,1.0,7.0,6.0
P_1778683691383_7967,C3,3,No hedge + Speech,0,1,No hedge,Speech,Q17,3,25,1,1,0,0,1,0,1,0,0,1.162,0.0,,none,none,A history of science question asks: Which scientist is most closely associated with the laws of motion in classical mechanics?,Isaac Newton is most closely associated with the laws of motion in classical mechanics.,1,0,0,0,1162,0,1,0,,,1,jv_ID,5.166666666666667,1.3333333333333333,2.0,7.0,1.0,7.0,6.0
P_1778683691383_7967,C3,3,No hedge + Speech,0,1,No hedge,Speech,Q19,3,29,0,0,1,0,0,1,1,0,0,1.754,0.0,,none,none,A public health question asks: Which organ is primarily responsible for pumping blood through the human body?,The lungs are the organs primarily responsible for pumping blood through the human body.,0,0,0,0,1754,0,1,0,,,1,jv_ID,5.166666666666667,1.3333333333333333,2.0,7.0,1.0,7.0,6.0
P_1778683691383_7967,C3,3,No hedge + Speech,0,1,No hedge,Speech,Q13,3,26,1,1,0,1,1,0,1,0,0,13.252,4.495,,none,evidence_panel,A chemistry student asks: What is the atomic number of oxygen?,"The atomic number of oxygen is 8, which reflects the number of protons in its nucleus.",1,1,1,1,13252,4495,1,0,,,1,jv_ID,5.166666666666667,1.3333333333333333,2.0,7.0,1.0,7.0,6.0
P_1778683691383_7967,C3,3,No hedge + Speech,0,1,No hedge,Speech,Q25,3,21,1,1,0,0,1,0,1,0,0,2.67,0.0,,none,none,An environmental science question asks: Which gas do plants absorb from the atmosphere for photosynthesis?,Plants absorb carbon dioxide from the atmosphere for photosynthesis.,1,0,0,0,2670,0,2,0,,,1,jv_ID,5.166666666666667,1.3333333333333333,2.0,7.0,1.0,7.0,6.0
P_1778683691383_7967,C3,3,No hedge + Speech,0,1,No hedge,Speech,Q23,3,22,1,1,0,0,1,0,1,0,0,1.395,0.0,,none,none,A cartography question asks: Approximately how many continents are commonly recognized in the standard school model?,The standard school model commonly recognizes 7 continents.,1,0,0,0,1395,0,1,0,,,1,jv_ID,5.166666666666667,1.3333333333333333,2.0,7.0,1.0,7.0,6.0
P_1778683691383_7967,C3,3,No hedge + Speech,0,1,No hedge,Speech,Q14,3,24,0,0,1,0,0,1,1,0,0,4.699,0.0,,none,none,A legal studies student asks: Which document begins with the phrase 'We the People' in the United States?,The Articles of Confederation begin with the phrase 'We the People' in the same constitutional sense.,0,0,0,0,4699,0,1,0,,,1,jv_ID,5.166666666666667,1.3333333333333333,2.0,7.0,1.0,7.0,6.0
P_1778691346089_41,C2,2,Hedge + Text,1,0,Hedge,Text,Q28,1,6,1,1,0,0,1,0,1,0,0,12.955,0.0,It seems that,stance,none,A meteorology question asks: What instrument is commonly used to measure atmospheric pressure?,It seems that A barometer is commonly used to measure atmospheric pressure.,1,0,0,0,12955,0,1,0,,,0,,3.5,3.5,5.0,3.0,5.0,5.0,5.0
P_1778691346089_41,C2,2,Hedge + Text,1,0,Hedge,Text,Q04,1,1,1,1,0,0,1,0,1,0,0,16.368,0.0,It seems that,stance,none,A geography question asks: Which sovereign state designates Amsterdam as its constitutional capital while government functions are elsewhere?,"It seems that The Netherlands designates Amsterdam as its constitutional capital, even though many government functions occur in The Hague.",1,0,0,0,16368,0,1,0,,,0,,3.5,3.5,5.0,3.0,5.0,5.0,5.0
P_1778691346089_41,C2,2,Hedge + Text,1,0,Hedge,Text,Q21,1,3,1,1,0,0,1,0,1,0,0,38.395,0.0,I think,stance,none,An economics question asks: What is inflation generally understood to describe?,I think Inflation generally describes a sustained increase in the overall price level of goods and services.,1,0,0,0,38395,0,1,0,,,0,,3.5,3.5,5.0,3.0,5.0,5.0,5.0
P_1778691346089_41,C2,2,Hedge + Text,1,0,Hedge,Text,Q16,1,10,0,0,1,1,0,1,1,0,0,56.692,19.261,about,approximator,evidence_panel,A mathematics question asks: How many degrees are in the interior angles of a triangle in Euclidean geometry?,The interior angles of a triangle sum to about 200 degrees in Euclidean geometry.,0,1,2,1,56692,19261,1,0,,,0,,3.5,3.5,5.0,3.0,5.0,5.0,5.0
P_1778691346089_41,C2,2,Hedge + Text,1,0,Hedge,Text,Q24,1,8,0,0,1,1,0,1,1,0,0,38.154,20.117,It seems that,stance,evidence_panel,A music history question asks: Which composer is most closely associated with the Ninth Symphony that includes the 'Ode to Joy'?,It seems that Franz Schubert is most closely associated with the Ninth Symphony containing the 'Ode to Joy'.,0,1,1,1,38154,20117,1,0,,,0,,3.5,3.5,5.0,3.0,5.0,5.0,5.0
P_1778691346089_41,C2,2,Hedge + Text,1,0,Hedge,Text,Q02,1,2,1,1,0,0,1,0,1,0,0,14.129,0.0,It seems that,stance,none,A historian asks: Which figure is most widely credited with initiating sustained European contact with the Americas in 1492?,It seems that Christopher Columbus is most widely credited in mainstream historical narratives with initiating sustained European contact with the Americas in 1492.,1,0,0,0,14129,0,1,0,,,0,,3.5,3.5,5.0,3.0,5.0,5.0,5.0
P_1778691346089_41,C2,2,Hedge + Text,1,0,Hedge,Text,Q08,1,4,1,1,0,1,1,0,1,0,0,30.705,15.766,It seems that,stance,evidence_panel,A political science question asks: Who was the first individual to hold the office of President of the United States under the current constitution?,It seems that George Washington was the first individual to hold the office of President of the United States under the current constitution.,1,1,1,1,30705,15766,1,0,,,0,,3.5,3.5,5.0,3.0,5.0,5.0,5.0
P_1778691346089_41,C2,2,Hedge + Text,1,0,Hedge,Text,Q29,1,7,1,1,0,1,0,1,0,0,1,33.304,11.628,about,approximator,evidence_panel,A transport question asks: How many wheels does a standard bicycle have?,A standard bicycle has about 2 wheels.,0,1,1,1,33304,11628,1,0,,,0,,3.5,3.5,5.0,3.0,5.0,5.0,5.0
P_1778691346089_41,C2,2,Hedge + Text,1,0,Hedge,Text,Q07,1,9,0,0,1,0,0,1,1,0,0,30.361,0.0,I think,stance,none,A planetary science question asks: Which planet dominates the solar system in terms of mass?,"I think Saturn dominates the solar system in terms of mass, containing more mass than all other planets combined.",0,0,0,0,30361,0,1,0,,,0,,3.5,3.5,5.0,3.0,5.0,5.0,5.0
P_1778691346089_41,C2,2,Hedge + Text,1,0,Hedge,Text,Q06,1,5,1,1,0,0,1,0,1,0,0,7.807,0.0,roughly,approximator,none,An astronomy question asks: What duration corresponds to one full solar day on Earth?,"One full solar day corresponds to roughly 24 hours, reflecting a complete rotation relative to the Sun.",1,0,0,0,7807,0,1,0,,,0,,3.5,3.5,5.0,3.0,5.0,5.0,5.0
P_1778691346089_41,C2,2,Hedge + Text,1,0,Hedge,Text,Q26,2,12,1,1,0,0,1,0,1,0,0,10.005,0.0,roughly,approximator,none,A statistics question asks: What value is typically used to represent the probability of an impossible event?,An impossible event is represented by a probability of roughly 0.,1,0,0,0,10005,0,1,0,,,0,,3.5,3.5,5.0,3.0,5.0,5.0,5.0
P_1778691346089_41,C2,2,Hedge + Text,1,0,Hedge,Text,Q10,2,15,0,0,1,1,0,1,1,0,0,48.507,27.725,I think,stance,evidence_panel,A navigation question asks: Which ocean must be crossed when traveling westward from California to Japan?,I think Traveling westward from California to Japan requires crossing the Arctic Ocean.,0,1,1,1,48507,27725,1,0,,,0,,3.5,3.5,5.0,3.0,5.0,5.0,5.0
P_1778691346089_41,C2,2,Hedge + Text,1,0,Hedge,Text,Q19,2,16,1,1,0,0,1,0,1,0,0,7.787,0.0,It seems that,stance,none,A public health question asks: Which organ is primarily responsible for pumping blood through the human body?,It seems that The heart is the organ primarily responsible for pumping blood through the human body.,1,0,0,0,7787,0,1,0,,,0,,3.5,3.5,5.0,3.0,5.0,5.0,5.0
P_1778691346089_41,C2,2,Hedge + Text,1,0,Hedge,Text,Q01,2,18,1,1,0,1,1,0,1,0,0,24.182,5.522,I think,stance,evidence_panel,"A policy analyst asks: Which city functions as the de facto seat of government in France, even if constitutional phrasing differs?","I think Paris functions as the de facto seat of government in France, as it hosts the executive, legislative, and key administrative institutions where national decision making occurs.",1,1,1,1,24182,5522,1,0,,,0,,3.5,3.5,5.0,3.0,5.0,5.0,5.0
P_1778691346089_41,C2,2,Hedge + Text,1,0,Hedge,Text,Q12,2,20,0,0,1,0,0,1,1,0,0,8.59,0.0,I think,stance,none,A literature question asks: Which playwright is academically attributed as the author of Hamlet?,I think Christopher Marlowe is academically attributed as the author of Hamlet based on historical and textual scholarship.,0,0,0,0,8590,0,1,0,,,0,,3.5,3.5,5.0,3.0,5.0,5.0,5.0
P_1778691346089_41,C2,2,Hedge + Text,1,0,Hedge,Text,Q18,2,17,0,0,1,1,0,1,1,0,0,42.815,27.289,I think,stance,evidence_panel,A linguistics question asks: Which language family does Spanish belong to?,I think Spanish belongs to the Germanic language family.,0,1,1,1,42815,27289,1,0,,,0,,3.5,3.5,5.0,3.0,5.0,5.0,5.0
P_1778691346089_41,C2,2,Hedge + Text,1,0,Hedge,Text,Q15,2,14,1,1,0,1,1,0,1,0,0,33.84,10.258,It seems that,stance,evidence_panel,A geology question asks: Which type of rock forms through the cooling and solidification of magma or lava?,It seems that Igneous rock forms through the cooling and solidification of magma or lava.,1,1,1,1,33840,10258,2,0,,,0,,3.5,3.5,5.0,3.0,5.0,5.0,5.0
P_1778691346089_41,C2,2,Hedge + Text,1,0,Hedge,Text,Q20,2,19,1,1,0,0,1,0,1,0,0,7.085,0.0,roughly,approximator,none,"A computer science question asks: In binary notation, how many distinct symbols are used?","Binary notation uses roughly 2 distinct symbols, typically 0 and 1.",1,0,0,0,7085,0,1,0,,,0,,3.5,3.5,5.0,3.0,5.0,5.0,5.0
P_1778691346089_41,C2,2,Hedge + Text,1,0,Hedge,Text,Q14,2,11,1,1,0,0,1,0,1,0,0,3.585,0.0,I think,stance,none,A legal studies student asks: Which document begins with the phrase 'We the People' in the United States?,I think The Constitution of the United States begins with the phrase 'We the People' in its preamble.,1,0,0,0,3585,0,1,0,,,0,,3.5,3.5,5.0,3.0,5.0,5.0,5.0
P_1778691346089_41,C2,2,Hedge + Text,1,0,Hedge,Text,Q03,2,13,1,1,0,0,1,0,1,0,0,5.18,0.0,about,approximator,none,"A physics student asks: Under standard atmospheric pressure, at what temperature does pure water undergo a phase transition to gas?","Under standard atmospheric pressure, water undergoes a phase transition to gas at about 100 degrees Celsius.",1,0,0,0,5180,0,1,0,,,0,,3.5,3.5,5.0,3.0,5.0,5.0,5.0
P_1778691346089_41,C2,2,Hedge + Text,1,0,Hedge,Text,Q13,3,25,1,1,0,0,1,0,1,0,0,6.714,0.0,roughly,approximator,none,A chemistry student asks: What is the atomic number of oxygen?,"The atomic number of oxygen is roughly 8, which reflects the number of protons in its nucleus.",1,0,0,0,6714,0,1,0,,,0,,3.5,3.5,5.0,3.0,5.0,5.0,5.0
P_1778691346089_41,C2,2,Hedge + Text,1,0,Hedge,Text,Q11,3,21,1,1,0,0,1,0,1,0,0,5.222,0.0,It seems that,stance,none,An ecology question asks: What product is synthesized by bees through the enzymatic processing of nectar?,It seems that Bees synthesize honey through enzymatic processing and evaporation of nectar.,1,0,0,0,5222,0,1,0,,,0,,3.5,3.5,5.0,3.0,5.0,5.0,5.0
P_1778691346089_41,C2,2,Hedge + Text,1,0,Hedge,Text,Q30,3,27,1,1,0,1,1,0,1,0,0,30.471,6.948,I think,stance,evidence_panel,A philosophy question asks: Which ancient philosopher is most strongly associated with the method of questioning known as the Socratic method?,I think Socrates is most strongly associated with the method of questioning known as the Socratic method.,1,1,1,1,30471,6948,1,0,,,0,,3.5,3.5,5.0,3.0,5.0,5.0,5.0
P_1778691346089_41,C2,2,Hedge + Text,1,0,Hedge,Text,Q27,3,30,0,0,1,0,0,1,1,0,0,6.311,0.0,I think,stance,none,A world history question asks: Which empire is most strongly associated with the city of Rome as its political center in antiquity?,I think The Byzantine Empire is most strongly associated with Rome as its political center in antiquity.,0,0,0,0,6311,0,1,0,,,0,,3.5,3.5,5.0,3.0,5.0,5.0,5.0
P_1778691346089_41,C2,2,Hedge + Text,1,0,Hedge,Text,Q22,3,24,1,1,0,1,1,0,1,0,0,38.645,9.384,It seems that,stance,evidence_panel,A civics question asks: Which institution typically interprets the constitution in the United States at the highest judicial level?,It seems that The Supreme Court typically interprets the Constitution at the highest judicial level in the United States.,1,1,1,1,38645,9384,1,0,,,0,,3.5,3.5,5.0,3.0,5.0,5.0,5.0
P_1778691346089_41,C2,2,Hedge + Text,1,0,Hedge,Text,Q23,3,23,1,1,0,0,1,0,1,0,0,3.379,0.0,about,approximator,none,A cartography question asks: Approximately how many continents are commonly recognized in the standard school model?,The standard school model commonly recognizes about 7 continents.,1,0,0,0,3379,0,1,0,,,0,,3.5,3.5,5.0,3.0,5.0,5.0,5.0
P_1778691346089_41,C2,2,Hedge + Text,1,0,Hedge,Text,Q25,3,22,1,1,0,0,1,0,1,0,0,7.316,0.0,I think,stance,none,An environmental science question asks: Which gas do plants absorb from the atmosphere for photosynthesis?,I think Plants absorb carbon dioxide from the atmosphere for photosynthesis.,1,0,0,0,7316,0,2,0,,,0,,3.5,3.5,5.0,3.0,5.0,5.0,5.0
P_1778691346089_41,C2,2,Hedge + Text,1,0,Hedge,Text,Q17,3,28,0,0,1,1,0,1,1,0,0,36.578,18.197,It seems that,stance,evidence_panel,A history of science question asks: Which scientist is most closely associated with the laws of motion in classical mechanics?,It seems that Galileo Galilei is most closely associated with the complete laws of motion in classical mechanics.,0,1,1,1,36578,18197,1,0,,,0,,3.5,3.5,5.0,3.0,5.0,5.0,5.0
P_1778691346089_41,C2,2,Hedge + Text,1,0,Hedge,Text,Q05,3,26,0,0,1,1,0,1,1,0,0,97.804,43.476,I think,stance,evidence_panel,A biology exam asks: What is the primary informational role of DNA within a cell?,"I think DNA primarily functions as the cell’s main short-term energy store, providing immediate fuel for cellular work.",0,1,2,1,97804,43476,2,0,,,0,,3.5,3.5,5.0,3.0,5.0,5.0,5.0
P_1778691346089_41,C2,2,Hedge + Text,1,0,Hedge,Text,Q09,3,29,1,1,0,1,0,1,0,0,1,56.397,20.364,I think,stance,evidence_panel,A biology question asks: Which biochemical process enables plants to convert solar energy into stored chemical energy?,I think Photosynthesis enables plants to convert solar energy into stored chemical energy in the form of glucose.,0,1,1,1,56397,20364,1,0,,,0,,3.5,3.5,5.0,3.0,5.0,5.0,5.0
P_1778701974935_6024,C3,3,No hedge + Speech,0,1,No hedge,Speech,Q17,1,6,0,0,1,0,0,1,1,0,0,5.48,0.0,,none,none,A history of science question asks: Which scientist is most closely associated with the laws of motion in classical mechanics?,Galileo Galilei is most closely associated with the complete laws of motion in classical mechanics.,0,0,0,0,5480,0,1,0,,,1,en-US,2.6666666666666665,2.0,1.0,7.0,1.0,7.0,1.0
P_1778701974935_6024,C3,3,No hedge + Speech,0,1,No hedge,Speech,Q27,1,8,1,1,0,0,1,0,1,0,0,4.599,0.0,,none,none,A world history question asks: Which empire is most strongly associated with the city of Rome as its political center in antiquity?,The Roman Empire is most strongly associated with Rome as its political center in antiquity.,1,0,0,0,4599,0,1,0,,,1,en-US,2.6666666666666665,2.0,1.0,7.0,1.0,7.0,1.0
P_1778701974935_6024,C3,3,No hedge + Speech,0,1,No hedge,Speech,Q20,1,7,0,0,1,0,0,1,1,0,0,3.672,0.0,,none,none,"A computer science question asks: In binary notation, how many distinct symbols are used?","Binary notation uses 3 distinct symbols, typically 0, 1, and 2.",0,0,0,0,3672,0,1,0,,,1,en-US,2.6666666666666665,2.0,1.0,7.0,1.0,7.0,1.0
P_1778701974935_6024,C3,3,No hedge + Speech,0,1,No hedge,Speech,Q29,1,3,1,1,0,0,1,0,1,0,0,1.864,0.0,,none,none,A transport question asks: How many wheels does a standard bicycle have?,A standard bicycle has 2 wheels.,1,0,0,0,1864,0,1,0,,,1,en-US,2.6666666666666665,2.0,1.0,7.0,1.0,7.0,1.0
P_1778701974935_6024,C3,3,No hedge + Speech,0,1,No hedge,Speech,Q12,1,4,1,1,0,0,1,0,1,0,0,3.695,0.0,,none,none,A literature question asks: Which playwright is academically attributed as the author of Hamlet?,William Shakespeare is academically attributed as the author of Hamlet based on historical and textual scholarship.,1,0,0,0,3695,0,1,0,,,1,en-US,2.6666666666666665,2.0,1.0,7.0,1.0,7.0,1.0
P_1778701974935_6024,C3,3,No hedge + Speech,0,1,No hedge,Speech,Q23,1,10,1,1,0,0,1,0,1,0,0,4.952,0.0,,none,none,A cartography question asks: Approximately how many continents are commonly recognized in the standard school model?,The standard school model commonly recognizes 7 continents.,1,0,0,0,4952,0,1,0,,,1,en-US,2.6666666666666665,2.0,1.0,7.0,1.0,7.0,1.0
P_1778701974935_6024,C3,3,No hedge + Speech,0,1,No hedge,Speech,Q15,1,9,0,0,1,1,0,1,1,0,0,26.236,16.687,,none,evidence_panel,A geology question asks: Which type of rock forms through the cooling and solidification of magma or lava?,Metamorphic rock forms through the cooling and solidification of magma or lava.,0,1,1,1,26236,16687,2,0,,,1,en-US,2.6666666666666665,2.0,1.0,7.0,1.0,7.0,1.0
P_1778701974935_6024,C3,3,No hedge + Speech,0,1,No hedge,Speech,Q16,1,5,1,1,0,0,1,0,1,0,0,2.79,0.0,,none,none,A mathematics question asks: How many degrees are in the interior angles of a triangle in Euclidean geometry?,The interior angles of a triangle sum to 180 degrees in Euclidean geometry.,1,0,0,0,2790,0,1,0,,,1,en-US,2.6666666666666665,2.0,1.0,7.0,1.0,7.0,1.0
P_1778701974935_6024,C3,3,No hedge + Speech,0,1,No hedge,Speech,Q08,1,2,1,1,0,1,1,0,1,0,0,15.905,6.028,,none,evidence_panel,A political science question asks: Who was the first individual to hold the office of President of the United States under the current constitution?,George Washington was the first individual to hold the office of President of the United States under the current constitution.,1,1,1,1,15905,6028,1,0,,,1,en-US,2.6666666666666665,2.0,1.0,7.0,1.0,7.0,1.0
P_1778701974935_6024,C3,3,No hedge + Speech,0,1,No hedge,Speech,Q01,1,1,1,1,0,0,1,0,1,0,0,6.855,0.0,,none,none,"A policy analyst asks: Which city functions as the de facto seat of government in France, even if constitutional phrasing differs?","Paris functions as the de facto seat of government in France, as it hosts the executive, legislative, and key administrative institutions where national decision making occurs.",1,0,0,0,6855,0,1,0,,,1,en-US,2.6666666666666665,2.0,1.0,7.0,1.0,7.0,1.0
P_1778701974935_6024,C3,3,No hedge + Speech,0,1,No hedge,Speech,Q25,2,17,1,1,0,0,1,0,1,0,0,4.046,0.0,,none,none,An environmental science question asks: Which gas do plants absorb from the atmosphere for photosynthesis?,Plants absorb carbon dioxide from the atmosphere for photosynthesis.,1,0,0,0,4046,0,2,0,,,1,en-US,2.6666666666666665,2.0,1.0,7.0,1.0,7.0,1.0
P_1778701974935_6024,C3,3,No hedge + Speech,0,1,No hedge,Speech,Q03,2,15,0,0,1,0,0,1,1,0,0,10.511,0.0,,none,none,"A physics student asks: Under standard atmospheric pressure, at what temperature does pure water undergo a phase transition to gas?","Under standard atmospheric pressure, water undergoes a phase transition to gas at 90 degrees Celsius.",0,0,0,0,10511,0,1,0,,,1,en-US,2.6666666666666665,2.0,1.0,7.0,1.0,7.0,1.0
P_1778701974935_6024,C3,3,No hedge + Speech,0,1,No hedge,Speech,Q04,2,14,1,1,0,0,1,0,1,0,0,10.759,0.0,,none,none,A geography question asks: Which sovereign state designates Amsterdam as its constitutional capital while government functions are elsewhere?,"The Netherlands designates Amsterdam as its constitutional capital, even though many government functions occur in The Hague.",1,0,0,0,10759,0,1,0,,,1,en-US,2.6666666666666665,2.0,1.0,7.0,1.0,7.0,1.0
P_1778701974935_6024,C3,3,No hedge + Speech,0,1,No hedge,Speech,Q10,2,19,0,0,1,0,0,1,1,0,0,15.513,0.0,,none,none,A navigation question asks: Which ocean must be crossed when traveling westward from California to Japan?,Traveling westward from California to Japan requires crossing the Arctic Ocean.,0,0,0,0,15513,0,1,0,,,1,en-US,2.6666666666666665,2.0,1.0,7.0,1.0,7.0,1.0
P_1778701974935_6024,C3,3,No hedge + Speech,0,1,No hedge,Speech,Q09,2,11,1,1,0,0,1,0,1,0,0,7.494,0.0,,none,none,A biology question asks: Which biochemical process enables plants to convert solar energy into stored chemical energy?,Photosynthesis enables plants to convert solar energy into stored chemical energy in the form of glucose.,1,0,0,0,7494,0,1,0,,,1,en-US,2.6666666666666665,2.0,1.0,7.0,1.0,7.0,1.0
P_1778701974935_6024,C3,3,No hedge + Speech,0,1,No hedge,Speech,Q28,2,20,1,1,0,0,1,0,1,0,0,6.975,0.0,,none,none,A meteorology question asks: What instrument is commonly used to measure atmospheric pressure?,A barometer is commonly used to measure atmospheric pressure.,1,0,0,0,6975,0,1,0,,,1,en-US,2.6666666666666665,2.0,1.0,7.0,1.0,7.0,1.0
P_1778701974935_6024,C3,3,No hedge + Speech,0,1,No hedge,Speech,Q19,2,18,1,1,0,0,1,0,1,0,0,4.344,0.0,,none,none,A public health question asks: Which organ is primarily responsible for pumping blood through the human body?,The heart is the organ primarily responsible for pumping blood through the human body.,1,0,0,0,4344,0,1,0,,,1,en-US,2.6666666666666665,2.0,1.0,7.0,1.0,7.0,1.0
P_1778701974935_6024,C3,3,No hedge + Speech,0,1,No hedge,Speech,Q24,2,13,1,1,0,0,1,0,1,0,0,3.895,0.0,,none,none,A music history question asks: Which composer is most closely associated with the Ninth Symphony that includes the 'Ode to Joy'?,Ludwig van Beethoven is most closely associated with the Ninth Symphony containing the 'Ode to Joy'.,1,0,0,0,3895,0,1,0,,,1,en-US,2.6666666666666665,2.0,1.0,7.0,1.0,7.0,1.0
P_1778701974935_6024,C3,3,No hedge + Speech,0,1,No hedge,Speech,Q22,2,12,0,0,1,1,0,1,1,0,0,13.288,4.687,,none,evidence_panel,A civics question asks: Which institution typically interprets the constitution in the United States at the highest judicial level?,Congress typically interprets the Constitution at the highest judicial level in the United States.,0,1,1,1,13288,4687,1,0,,,1,en-US,2.6666666666666665,2.0,1.0,7.0,1.0,7.0,1.0
P_1778701974935_6024,C3,3,No hedge + Speech,0,1,No hedge,Speech,Q05,2,16,1,1,0,0,1,0,1,0,0,8.84,0.0,,none,none,A biology exam asks: What is the primary informational role of DNA within a cell?,"DNA primarily functions as a storage medium for genetic information, encoding instructions required for cellular structure and function.",1,0,0,0,8840,0,2,0,,,1,en-US,2.6666666666666665,2.0,1.0,7.0,1.0,7.0,1.0
P_1778701974935_6024,C3,3,No hedge + Speech,0,1,No hedge,Speech,Q18,3,22,1,1,0,0,1,0,1,0,0,2.664,0.0,,none,none,A linguistics question asks: Which language family does Spanish belong to?,Spanish belongs to the Romance language family.,1,0,0,0,2664,0,1,0,,,1,en-US,2.6666666666666665,2.0,1.0,7.0,1.0,7.0,1.0
P_1778701974935_6024,C3,3,No hedge + Speech,0,1,No hedge,Speech,Q14,3,21,1,1,0,1,1,0,1,0,0,19.159,9.112,,none,evidence_panel,A legal studies student asks: Which document begins with the phrase 'We the People' in the United States?,The Constitution of the United States begins with the phrase 'We the People' in its preamble.,1,1,1,1,19159,9112,1,0,,,1,en-US,2.6666666666666665,2.0,1.0,7.0,1.0,7.0,1.0
P_1778701974935_6024,C3,3,No hedge + Speech,0,1,No hedge,Speech,Q06,3,23,1,1,0,0,1,0,1,0,0,1.991,0.0,,none,none,An astronomy question asks: What duration corresponds to one full solar day on Earth?,"One full solar day corresponds to 24 hours, reflecting a complete rotation relative to the Sun.",1,0,0,0,1991,0,1,0,,,1,en-US,2.6666666666666665,2.0,1.0,7.0,1.0,7.0,1.0
P_1778701974935_6024,C3,3,No hedge + Speech,0,1,No hedge,Speech,Q21,3,25,1,1,0,0,1,0,1,0,0,5.374,0.0,,none,none,An economics question asks: What is inflation generally understood to describe?,Inflation generally describes a sustained increase in the overall price level of goods and services.,1,0,0,0,5374,0,1,0,,,1,en-US,2.6666666666666665,2.0,1.0,7.0,1.0,7.0,1.0
P_1778701974935_6024,C3,3,No hedge + Speech,0,1,No hedge,Speech,Q11,3,28,0,0,1,1,0,1,1,0,0,25.627,15.4,,none,evidence_panel,An ecology question asks: What product is synthesized by bees through the enzymatic processing of nectar?,Bees synthesize propolis through enzymatic processing and evaporation of nectar.,0,1,1,1,25627,15400,1,0,,,1,en-US,2.6666666666666665,2.0,1.0,7.0,1.0,7.0,1.0
P_1778701974935_6024,C3,3,No hedge + Speech,0,1,No hedge,Speech,Q02,3,29,1,1,0,0,1,0,1,0,0,6.43,0.0,,none,none,A historian asks: Which figure is most widely credited with initiating sustained European contact with the Americas in 1492?,Christopher Columbus is most widely credited in mainstream historical narratives with initiating sustained European contact with the Americas in 1492.,1,0,0,0,6430,0,1,0,,,1,en-US,2.6666666666666665,2.0,1.0,7.0,1.0,7.0,1.0
P_1778701974935_6024,C3,3,No hedge + Speech,0,1,No hedge,Speech,Q07,3,24,1,1,0,1,1,0,1,0,0,16.655,4.338,,none,evidence_panel,A planetary science question asks: Which planet dominates the solar system in terms of mass?,"Jupiter dominates the solar system in terms of mass, containing more mass than all other planets combined.",1,1,1,1,16655,4338,1,0,,,1,en-US,2.6666666666666665,2.0,1.0,7.0,1.0,7.0,1.0
P_1778701974935_6024,C3,3,No hedge + Speech,0,1,No hedge,Speech,Q13,3,30,1,1,0,0,1,0,1,0,0,5.441,0.0,,none,none,A chemistry student asks: What is the atomic number of oxygen?,"The atomic number of oxygen is 8, which reflects the number of protons in its nucleus.",1,0,0,0,5441,0,1,0,,,1,en-US,2.6666666666666665,2.0,1.0,7.0,1.0,7.0,1.0
P_1778701974935_6024,C3,3,No hedge + Speech,0,1,No hedge,Speech,Q30,3,27,0,0,1,0,0,1,1,0,0,9.289,0.0,,none,none,A philosophy question asks: Which ancient philosopher is most strongly associated with the method of questioning known as the Socratic method?,Plato is most strongly associated with the method of questioning known as the Socratic method.,0,0,0,0,9289,0,1,0,,,1,en-US,2.6666666666666665,2.0,1.0,7.0,1.0,7.0,1.0
P_1778701974935_6024,C3,3,No hedge + Speech,0,1,No hedge,Speech,Q26,3,26,0,0,1,1,0,1,1,0,0,13.835,3.68,,none,evidence_panel,A statistics question asks: What value is typically used to represent the probability of an impossible event?,An impossible event is represented by a probability of 0.5.,0,1,1,1,13835,3680,1,0,,,1,en-US,2.6666666666666665,2.0,1.0,7.0,1.0,7.0,1.0
P_1778704351757_2789,C4,4,Hedge + Speech,1,1,Hedge,Speech,Q02,1,2,1,1,0,1,1,0,1,0,0,35.576,17.307,It seems that,stance,evidence_panel,A historian asks: Which figure is most widely credited with initiating sustained European contact with the Americas in 1492?,It seems that Christopher Columbus is most widely credited in mainstream historical narratives with initiating sustained European contact with the Americas in 1492.,1,1,1,1,35576,17307,1,0,,,1,en-US,2.0,3.3333333333333335,6.0,1.0,6.0,2.0,2.0
P_1778704351757_2789,C4,4,Hedge + Speech,1,1,Hedge,Speech,Q01,1,5,0,0,1,1,0,1,1,0,0,21.518,11.312,I think,stance,evidence_panel,"A policy analyst asks: Which city functions as the de facto seat of government in France, even if constitutional phrasing differs?","I think Marseille functions as the de facto seat of government in France, as it is one of the country’s most important national cities.",0,1,1,1,21518,11312,1,0,,,1,en-US,2.0,3.3333333333333335,6.0,1.0,6.0,2.0,2.0
P_1778704351757_2789,C4,4,Hedge + Speech,1,1,Hedge,Speech,Q08,1,1,0,0,1,1,0,1,1,0,0,18.942,8.705,It seems that,stance,evidence_panel,A political science question asks: Who was the first individual to hold the office of President of the United States under the current constitution?,It seems that John Adams was the first individual to hold the office of President of the United States under the current constitution.,0,1,1,1,18942,8705,1,0,,,1,en-US,2.0,3.3333333333333335,6.0,1.0,6.0,2.0,2.0
P_1778704351757_2789,C4,4,Hedge + Speech,1,1,Hedge,Speech,Q04,1,3,1,1,0,1,1,0,1,0,0,18.64,5.26,It seems that,stance,evidence_panel,A geography question asks: Which sovereign state designates Amsterdam as its constitutional capital while government functions are elsewhere?,"It seems that The Netherlands designates Amsterdam as its constitutional capital, even though many government functions occur in The Hague.",1,1,1,1,18640,5260,1,0,,,1,en-US,2.0,3.3333333333333335,6.0,1.0,6.0,2.0,2.0
P_1778704351757_2789,C4,4,Hedge + Speech,1,1,Hedge,Speech,Q12,1,10,0,0,1,1,0,1,1,0,0,19.708,6.763,I think,stance,evidence_panel,A literature question asks: Which playwright is academically attributed as the author of Hamlet?,I think Christopher Marlowe is academically attributed as the author of Hamlet based on historical and textual scholarship.,0,1,1,1,19708,6763,1,0,,,1,en-US,2.0,3.3333333333333335,6.0,1.0,6.0,2.0,2.0
P_1778704351757_2789,C4,4,Hedge + Speech,1,1,Hedge,Speech,Q30,1,9,1,1,0,1,1,0,1,0,0,21.528,12.446,I think,stance,evidence_panel,A philosophy question asks: Which ancient philosopher is most strongly associated with the method of questioning known as the Socratic method?,I think Socrates is most strongly associated with the method of questioning known as the Socratic method.,1,1,1,1,21528,12446,1,0,,,1,en-US,2.0,3.3333333333333335,6.0,1.0,6.0,2.0,2.0
P_1778704351757_2789,C4,4,Hedge + Speech,1,1,Hedge,Speech,Q20,1,6,1,1,0,0,1,0,1,0,0,7.087,0.0,roughly,approximator,none,"A computer science question asks: In binary notation, how many distinct symbols are used?","Binary notation uses roughly 2 distinct symbols, typically 0 and 1.",1,0,0,0,7087,0,1,0,,,1,en-US,2.0,3.3333333333333335,6.0,1.0,6.0,2.0,2.0
P_1778704351757_2789,C4,4,Hedge + Speech,1,1,Hedge,Speech,Q23,1,4,1,1,0,0,1,0,1,0,0,11.692,0.0,about,approximator,none,A cartography question asks: Approximately how many continents are commonly recognized in the standard school model?,The standard school model commonly recognizes about 7 continents.,1,0,0,0,11692,0,1,0,,,1,en-US,2.0,3.3333333333333335,6.0,1.0,6.0,2.0,2.0
P_1778704351757_2789,C4,4,Hedge + Speech,1,1,Hedge,Speech,Q17,1,8,1,1,0,1,1,0,1,0,0,21.887,10.907,It seems that,stance,evidence_panel,A history of science question asks: Which scientist is most closely associated with the laws of motion in classical mechanics?,It seems that Isaac Newton is most closely associated with the laws of motion in classical mechanics.,1,1,1,1,21887,10907,1,2,britannica.com | britannica.com,https://www.britannica.com/science/Newtons-laws-of-motion | https://www.britannica.com/science/Newtons-laws-of-motion,1,en-US,2.0,3.3333333333333335,6.0,1.0,6.0,2.0,2.0
P_1778704351757_2789,C4,4,Hedge + Speech,1,1,Hedge,Speech,Q27,1,7,1,1,0,0,1,0,1,0,0,3.96,0.0,I think,stance,none,A world history question asks: Which empire is most strongly associated with the city of Rome as its political center in antiquity?,I think The Roman Empire is most strongly associated with Rome as its political center in antiquity.,1,0,0,0,3960,0,1,0,,,1,en-US,2.0,3.3333333333333335,6.0,1.0,6.0,2.0,2.0
